"Time (s)","Acceleration x (m/s^2)","Acceleration y (m/s^2)","Acceleration z (m/s^2)","Absolute acceleration (m/s^2)"
1.597913500E-2,-4.366901398E0,5.417350292E0,6.209374905E0,9.325977092E0
1.838392600E-2,-4.390829563E0,5.405386448E0,6.104090691E0,9.260535085E0
2.078877000E-2,-4.400400639E0,5.395814896E0,6.027520180E0,9.209198862E0
2.319361400E-2,-4.393222332E0,5.383851051E0,5.972485542E0,9.162796416E0
2.559845800E-2,-4.405186653E0,5.383851051E0,5.931807518E0,9.142092869E0
2.800330100E-2,-4.405186653E0,5.352744102E0,5.876772404E0,9.088123721E0
3.040814500E-2,-4.393222332E0,5.338387489E0,5.795416355E0,9.021398682E0
3.281298900E-2,-4.378865242E0,5.326423168E0,5.740381718E0,8.972024679E0
3.521783300E-2,-4.374079704E0,5.304887772E0,5.726024628E0,8.947724044E0
3.762262400E-2,-4.383651257E0,5.283352375E0,5.709274769E0,8.928943333E0
4.002746800E-2,-4.407579422E0,5.259424210E0,5.709274769E0,8.926596091E0
4.243231200E-2,-4.443471432E0,5.245067120E0,5.673382282E0,8.913048523E0
4.483715500E-2,-4.457828522E0,5.218746185E0,5.654240131E0,8.892579960E0
4.724199900E-2,-4.462614059E0,5.206781864E0,5.654240131E0,8.887965633E0
4.964684300E-2,-4.462614059E0,5.192425251E0,5.647061348E0,8.874993301E0
5.205168700E-2,-4.421936035E0,5.182853699E0,5.651846886E0,8.852054224E0
5.445653000E-2,-4.376472473E0,5.194818020E0,5.670989513E0,8.848715592E0
5.686132200E-2,-4.323830605E0,5.178068161E0,5.714060307E0,8.840723170E0
5.926616600E-2,-4.304687977E0,5.156532764E0,5.781059742E0,8.862325906E0
6.167101000E-2,-4.295116425E0,5.125426292E0,5.812166214E0,8.859982837E0
6.407585300E-2,-4.295116425E0,5.120640278E0,5.824130535E0,8.865070696E0
6.648069700E-2,-4.299902439E0,5.087141037E0,5.852844238E0,8.867014751E0
6.888554100E-2,-4.287938118E0,5.060820103E0,5.900700569E0,8.877870275E0
7.129038500E-2,-4.266402721E0,5.067998409E0,5.931807518E0,8.892307939E0
7.369522800E-2,-4.232903481E0,5.053641319E0,5.927021503E0,8.864894041E0
7.610002000E-2,-4.218546391E0,5.056034088E0,5.929414749E0,8.861014254E0
7.850486400E-2,-4.223331928E0,5.058426857E0,5.936593056E0,8.869461762E0
8.090970800E-2,-4.199403763E0,5.046463013E0,5.912664890E0,8.835235538E0
8.331455100E-2,-4.185046673E0,5.044070244E0,5.910272121E0,8.825450517E0
8.571939500E-2,-4.201796532E0,5.027320385E0,5.912664890E0,8.825454688E0
8.812423900E-2,-4.170690060E0,5.027320385E0,5.927021503E0,8.820328210E0
9.052908300E-2,-4.201796532E0,5.039284706E0,5.977271080E0,8.875655131E0
9.293392600E-2,-4.297509670E0,5.151747227E0,6.015556335E0,9.010882691E0
9.533877000E-2,-4.292723656E0,5.185246468E0,6.027520180E0,9.035776493E0
9.774356200E-2,-4.211368084E0,5.192425251E0,6.049055576E0,9.015984388E0
1.001484050E-1,-4.118047714E0,5.170889854E0,6.082555294E0,8.982978224E0
1.025532490E-1,-4.039084435E0,5.149354458E0,6.130411625E0,8.967273894E0
1.049580930E-1,-3.919443607E0,5.125426292E0,6.149554253E0,8.913419679E0
1.073629370E-1,-3.811766386E0,5.106283665E0,6.168696880E0,8.868850943E0
1.097677800E-1,-3.732803345E0,4.998606682E0,6.209374905E0,8.802058070E0
1.121726240E-1,-3.670589924E0,4.888536453E0,6.159125328E0,8.677893976E0
1.145774680E-1,-3.665804386E0,4.888536453E0,6.206982136E0,8.709910314E0
1.169822600E-1,-3.656233072E0,4.929214478E0,6.297909260E0,8.793682772E0
1.193871030E-1,-3.615555048E0,5.008177757E0,6.269195557E0,8.800959930E0
1.217919470E-1,-3.553341627E0,5.118247509E0,6.300302029E0,8.860953670E0
1.241967910E-1,-3.469592810E0,5.192425251E0,6.422336102E0,8.957999512E0
1.266016350E-1,-3.321237803E0,5.283352375E0,6.422336102E0,8.954933493E0
1.290064780E-1,-3.160918713E0,5.398207664E0,6.369693756E0,8.927768570E0
1.314113220E-1,-3.058027267E0,5.474778175E0,6.407979012E0,8.965875409E0
1.338161660E-1,-2.957528830E0,5.515456200E0,6.422336102E0,8.967364990E0
1.362209580E-1,-2.914458036E0,5.522634506E0,6.367300987E0,8.918300253E0
1.386258010E-1,-2.902493954E0,5.498706341E0,6.355337143E0,8.891037778E0
1.410306450E-1,-2.845066071E0,5.460421085E0,6.348158360E0,8.843625610E0
1.434354890E-1,-2.754138947E0,5.414957523E0,6.307480335E0,8.757360019E0
1.458403330E-1,-2.708675146E0,5.367101192E0,6.266802311E0,8.684210238E0
1.482451760E-1,-2.682354212E0,5.276174068E0,6.233303070E0,8.595760820E0
1.506500200E-1,-2.689532757E0,5.216353416E0,6.214160442E0,8.547497845E0
1.530548640E-1,-2.770888567E0,5.187639713E0,6.161518097E0,8.517847997E0
1.554597080E-1,-2.871387243E0,5.137390137E0,6.123233318E0,8.493034110E0
1.578644990E-1,-3.002992392E0,5.099104881E0,6.101697922E0,8.499973613E0
1.602693430E-1,-3.148954630E0,5.056034088E0,6.077769279E0,8.509916297E0
1.626741870E-1,-3.282952785E0,5.044070244E0,6.044270039E0,8.529573490E0
1.650790300E-1,-3.385843992E0,5.056034088E0,6.039484501E0,8.573377005E0
1.674838740E-1,-3.524627686E0,5.067998409E0,6.094519138E0,8.674720268E0
1.698887180E-1,-3.706482172E0,5.096712112E0,6.156732559E0,8.810212271E0
1.722935620E-1,-3.881158352E0,5.089533806E0,6.206982136E0,8.915905548E0
1.746984050E-1,-4.055834293E0,5.106283665E0,6.283552170E0,9.055769020E0
1.771032490E-1,-4.295116425E0,5.094319344E0,6.405586243E0,9.242924309E0
1.795080410E-1,-4.472185612E0,5.044070244E0,6.537191391E0,9.390312032E0
1.819128850E-1,-4.512863636E0,4.991427898E0,6.664011002E0,9.470445253E0
1.843177280E-1,-4.503292084E0,4.914857864E0,6.762116909E0,9.495351100E0
1.867225720E-1,-4.510470867E0,4.881358147E0,6.917650223E0,9.593012530E0
1.891274160E-1,-4.546362877E0,4.835894585E0,7.063612461E0,9.692776323E0
1.915322600E-1,-4.510470867E0,4.790431023E0,7.159325123E0,9.723605969E0
1.939371030E-1,-4.455435753E0,4.747360229E0,7.252645493E0,9.746240482E0
1.963419470E-1,-4.357329845E0,4.709074974E0,7.357929707E0,9.762214916E0
1.987467910E-1,-4.283152580E0,4.697110653E0,7.429714203E0,9.777980244E0
2.011515830E-1,-4.206582069E0,4.697110653E0,7.429714203E0,9.744682362E0
2.035564260E-1,-4.036691666E0,4.704289436E0,7.484749317E0,9.718368744E0
2.059612700E-1,-3.876372576E0,4.682754040E0,7.537391186E0,9.683321518E0
2.083661140E-1,-3.768695593E0,4.692325115E0,7.582854748E0,9.680943528E0
2.107709580E-1,-3.739981890E0,4.706682205E0,7.664210796E0,9.740659580E0
2.131758010E-1,-3.775874138E0,4.713860512E0,7.719245911E0,9.801248077E0
2.155806450E-1,-3.864408493E0,4.716253281E0,7.685746193E0,9.810575546E0
2.179854890E-1,-3.976871252E0,4.689932346E0,7.587640762E0,9.766435517E0
2.203903330E-1,-4.103690624E0,4.682754040E0,7.549355507E0,9.785766741E0
2.227951240E-1,-4.185046673E0,4.689932346E0,7.520641804E0,9.801537339E0
2.251999680E-1,-4.266402721E0,4.670789719E0,7.439285755E0,9.765318291E0
2.276048120E-1,-4.316651821E0,4.634897232E0,7.357929707E0,9.708495499E0
2.300096550E-1,-4.328616142E0,4.582255363E0,7.286144733E0,9.634411606E0
2.324144990E-1,-4.357329845E0,4.534399033E0,7.209574699E0,9.566873330E0
2.348193430E-1,-4.383651257E0,4.474578381E0,7.121040344E0,9.484063771E0
2.372241870E-1,-4.417150497E0,4.412364960E0,7.027719975E0,9.400480365E0
2.396290300E-1,-4.443471432E0,4.338187218E0,6.924828529E0,9.301481434E0
2.420338740E-1,-4.491328239E0,4.278367043E0,6.841079712E0,9.234545226E0
2.444387180E-1,-4.503292084E0,4.192225456E0,6.750152588E0,9.133397715E0
2.468435100E-1,-4.484149456E0,4.106083870E0,6.678368092E0,9.031507153E0
2.492483530E-1,-4.450650215E0,4.058227062E0,6.582654953E0,8.922378632E0
2.516531970E-1,-4.438685894E0,4.005585194E0,6.496513367E0,8.829005104E0
2.540580410E-1,-4.431507587E0,3.948157310E0,6.393621922E0,8.723795442E0
2.564628850E-1,-4.448257446E0,3.919443607E0,6.290730953E0,8.644207796E0
2.588677280E-1,-4.433900356E0,3.936193228E0,6.240481377E0,8.607943849E0
2.612725720E-1,-4.450650215E0,3.929014683E0,6.214160442E0,8.594255856E0
2.636774160E-1,-4.512863636E0,3.921836376E0,6.171089649E0,8.592385362E0
2.660822600E-1,-4.577469826E0,3.926621914E0,6.128018856E0,8.597918630E0
2.684871030E-1,-4.656432629E0,3.943371773E0,6.125626087E0,8.646146004E0
2.708918950E-1,-4.733003139E0,3.964907169E0,6.130411625E0,8.700790439E0
2.732967390E-1,-4.792823792E0,3.984049797E0,6.106483459E0,8.725419928E0
2.757015830E-1,-4.869394302E0,3.981656790E0,6.108876228E0,8.768292903E0
2.781064260E-1,-4.926821709E0,4.015156269E0,6.108876228E0,8.815521583E0
2.805112700E-1,-4.989035130E0,4.036691666E0,6.116054535E0,8.865183258E0
2.829161140E-1,-5.032105923E0,4.031906128E0,6.173482418E0,8.926939129E0
2.853209580E-1,-5.070391178E0,4.022335052E0,6.238088608E0,8.988981892E0
2.877258010E-1,-5.101497650E0,4.012763500E0,6.302694798E0,9.047182484E0
2.901306450E-1,-5.120640278E0,4.005585194E0,6.419943333E0,9.136812464E0
2.925354370E-1,-5.106283665E0,3.988835335E0,6.549155712E0,9.212837822E0
2.949402800E-1,-5.058426857E0,3.964907169E0,6.699903488E0,9.284227371E0
2.973451240E-1,-4.991427898E0,3.936193228E0,6.860222340E0,9.352572916E0
2.997499680E-1,-4.943571568E0,3.888336897E0,7.013363361E0,9.420473943E0
3.021548120E-1,-4.838287354E0,3.850051641E0,7.171289444E0,9.468860251E0
3.045596550E-1,-4.759324074E0,3.799802303E0,7.305287361E0,9.510882536E0
3.069644990E-1,-4.716253281E0,3.775874138E0,7.422535896E0,9.570491609E0
3.093693430E-1,-4.677968502E0,3.778266907E0,7.489534855E0,9.604781230E0
3.117741870E-1,-4.642076015E0,3.775874138E0,7.549355507E0,9.633216691E0
3.141789780E-1,-4.646861553E0,3.778266907E0,7.578069210E0,9.658972827E0
3.165838220E-1,-4.625326157E0,3.823730469E0,7.587640762E0,9.674029620E0
3.189886660E-1,-4.615755081E0,3.859622955E0,7.613961697E0,9.704344236E0
3.213935100E-1,-4.601397991E0,3.854837179E0,7.633104324E0,9.710659853E0
3.237983530E-1,-4.589433670E0,3.842873096E0,7.642675400E0,9.707783594E0
3.262031970E-1,-4.548755646E0,3.823730469E0,7.654639721E0,9.690490281E0
3.286080410E-1,-4.529613495E0,3.806980848E0,7.676175117E0,9.691963992E0
3.310128850E-1,-4.481756687E0,3.799802303E0,7.690532207E0,9.678270826E0
3.334177280E-1,-4.455435753E0,3.816552162E0,7.647460938E0,9.638497650E0
3.358225720E-1,-4.462614059E0,3.835694790E0,7.585247993E0,9.600180513E0
3.382273640E-1,-4.479363918E0,3.842873096E0,7.515855789E0,9.556174077E0
3.406322080E-1,-4.488935471E0,3.809373617E0,7.429714203E0,9.479584493E0
3.430370510E-1,-4.472185612E0,3.799802303E0,7.317251682E0,9.379824832E0
3.454418950E-1,-4.431507587E0,3.802195072E0,7.290930748E0,9.340910985E0
3.478467390E-1,-4.390829563E0,3.780659676E0,7.305287361E0,9.324161907E0
3.502515830E-1,-4.326223373E0,3.735196114E0,7.267002583E0,9.245389403E0
3.526564260E-1,-4.240081787E0,3.728017569E0,7.200003147E0,9.149669605E0
3.550612700E-1,-4.180261135E0,3.720839262E0,7.200003147E0,9.119170647E0
3.574661140E-1,-4.134797573E0,3.725624800E0,7.190432072E0,9.092807295E0
3.598709580E-1,-4.084548473E0,3.718446493E0,7.070790768E0,8.972539364E0
3.622757490E-1,-4.031906128E0,3.713660717E0,7.001399040E0,8.891970055E0
3.646805930E-1,-3.967299938E0,3.716053486E0,6.984649181E0,8.850641022E0
3.670854370E-1,-3.907479286E0,3.723232031E0,6.936792850E0,8.789194854E0
3.694902800E-1,-3.821337700E0,3.713660717E0,6.829115868E0,8.662027550E0
3.718951240E-1,-3.694518089E0,3.711267948E0,6.762116909E0,8.552730487E0
3.742999680E-1,-3.558127165E0,3.711267948E0,6.750152588E0,8.485183479E0
3.767048120E-1,-3.388236761E0,3.720839262E0,6.685546398E0,8.367874509E0
3.791096550E-1,-3.227917671E0,3.761517286E0,6.585047722E0,8.242045759E0
3.815144990E-1,-3.084348440E0,3.806980848E0,6.496513367E0,8.137013851E0
3.839193430E-1,-2.957528830E0,3.840480328E0,6.388836384E0,8.019569581E0
3.863241870E-1,-2.883351326E0,3.838087559E0,6.252445698E0,7.882747502E0
3.887289780E-1,-2.790031195E0,3.826123476E0,6.151947021E0,7.763372146E0
3.911338220E-1,-2.734996319E0,3.759124279E0,6.053841114E0,7.632837771E0
3.935386660E-1,-2.677568436E0,3.689732552E0,5.874379635E0,7.435847976E0
3.959435100E-1,-2.600998163E0,3.637090445E0,5.632704735E0,7.191730041E0
3.983483530E-1,-2.610569477E0,3.605983734E0,5.407779217E0,7.004446284E0
4.007531970E-1,-2.679961443E0,3.613162279E0,5.218746185E0,6.890025162E0
4.031580410E-1,-2.816352367E0,3.670589924E0,5.053641319E0,6.851595554E0
4.055628850E-1,-2.998206854E0,3.744767427E0,4.962714195E0,6.902250329E0
4.079677280E-1,-3.239881754E0,3.871587038E0,4.984249592E0,7.094276846E0
4.103725720E-1,-3.462414265E0,3.984049797E0,5.096712112E0,7.337400063E0
4.127773640E-1,-3.632304668E0,4.077369690E0,5.247459888E0,7.573269840E0
4.151822080E-1,-3.720839262E0,4.146761417E0,5.343173027E0,7.719441240E0
4.175870510E-1,-3.773481369E0,4.132404804E0,5.496313572E0,7.843812465E0
4.199918950E-1,-3.763910055E0,4.118047714E0,5.697310925E0,7.974000731E0
4.223967390E-1,-3.704089403E0,4.065405846E0,5.883950710E0,8.054109445E0
4.248015830E-1,-3.646661758E0,3.974478483E0,6.068198204E0,8.118968570E0
4.272064260E-1,-3.586841106E0,3.859622955E0,6.228517532E0,8.158219728E0
4.296112700E-1,-3.503092289E0,3.778266907E0,6.422336102E0,8.233672170E0
4.320161140E-1,-3.471985579E0,3.701696634E0,6.608976364E0,8.332815275E0
4.344293430E-1,-3.440878868E0,3.639483213E0,6.731009960E0,8.389992880E0
4.368258010E-1,-3.414557934E0,3.548556089E0,6.843472958E0,8.431167080E0
4.392306450E-1,-3.400201082E0,3.486342669E0,6.936792850E0,8.475555890E0
4.416354370E-1,-3.445664644E0,3.378665686E0,7.022934437E0,8.521126379E0
4.440402800E-1,-3.479164124E0,3.314059258E0,7.094718933E0,8.568699347E0
4.464451240E-1,-3.517449379E0,3.280559778E0,7.164111137E0,8.628963494E0
4.488499680E-1,-3.529413462E0,3.223132133E0,7.231110096E0,8.668004001E0
4.512548120E-1,-3.570091486E0,3.187239647E0,7.290930748E0,8.721337108E0
4.536596550E-1,-3.613162279E0,3.170490026E0,7.350750923E0,8.782965775E0
4.560644990E-1,-3.591626883E0,3.125026464E0,7.398607731E0,8.798009458E0
4.584693430E-1,-3.610769272E0,3.113062143E0,7.463213921E0,8.855979487E0
4.608741870E-1,-3.625126362E0,3.065205812E0,7.506284714E0,8.881516651E0
4.632790300E-1,-3.625126362E0,3.024527788E0,7.546962738E0,8.902019774E0
4.656838220E-1,-3.601198196E0,3.002992392E0,7.585247993E0,8.917543321E0
4.680886660E-1,-3.596412420E0,3.000599623E0,7.637889862E0,8.959639610E0
4.704935100E-1,-3.608376503E0,2.993421078E0,7.685746193E0,9.002868725E0
4.728983530E-1,-3.617947817E0,2.998206854E0,7.707281590E0,9.026681574E0
4.753031970E-1,-3.682554007E0,2.995813847E0,7.716853142E0,9.060128422E0
4.777080410E-1,-3.761517286E0,3.007778168E0,7.700103283E0,9.082253705E0
4.801128850E-1,-3.852444410E0,3.017349243E0,7.647460938E0,9.079062902E0
4.825177280E-1,-3.938585997E0,2.974278450E0,7.594819069E0,9.057597288E0
4.849225720E-1,-4.060619831E0,2.933600664E0,7.518248558E0,9.034307259E0
4.873274160E-1,-4.197010994E0,2.864208698E0,7.415357590E0,8.989222488E0
4.897322600E-1,-4.369294167E0,2.801995277E0,7.283751965E0,8.943989699E0
4.921371030E-1,-4.500899315E0,2.730210543E0,7.166503906E0,8.892183224E0
4.945418950E-1,-4.644468784E0,2.651247501E0,7.082755089E0,8.874999901E0
4.969467390E-1,-4.785645485E0,2.555534601E0,6.996613503E0,8.853573307E0
4.993515830E-1,-4.931607246E0,2.467000246E0,6.898507595E0,8.831548408E0
5.017564260E-1,-5.048855782E0,2.356930256E0,6.833901405E0,8.817498134E0
5.041612700E-1,-5.154139996E0,2.222932339E0,6.745367050E0,8.775338393E0
5.065661140E-1,-5.237888813E0,2.105684042E0,6.678368092E0,8.744711823E0
5.089709580E-1,-5.307280540E0,1.988435626E0,6.649653912E0,8.737219244E0
5.113758010E-1,-5.352744102E0,1.864008784E0,6.692724705E0,8.770345612E0
5.137806450E-1,-5.345565796E0,1.770688772E0,6.771687984E0,8.807165865E0
5.161854890E-1,-5.268995285E0,1.684547186E0,6.905686378E0,8.848079729E0
5.185903330E-1,-5.170889854E0,1.600798368E0,7.087540627E0,8.918177473E0
5.209951760E-1,-5.024927616E0,1.555334687E0,7.288537979E0,8.988423077E0
5.233999680E-1,-4.859822750E0,1.526620865E0,7.475177765E0,9.045812901E0
5.258048120E-1,-4.709074974E0,1.536192179E0,7.664210796E0,9.125535636E0
5.282096550E-1,-4.563112736E0,1.584048629E0,7.846065521E0,9.213682872E0
5.306144990E-1,-4.412364960E0,1.670190215E0,7.989634991E0,9.278618818E0
5.330193430E-1,-4.302295208E0,1.763510346E0,8.075776100E0,9.318684050E0
5.354241870E-1,-4.185046673E0,1.840080619E0,8.173882484E0,9.365514786E0
5.378290300E-1,-4.096512318E0,1.921436548E0,8.257631302E0,9.416039841E0
5.402338740E-1,-4.015156269E0,2.012363911E0,8.300702095E0,9.437835750E0
5.426387180E-1,-3.955335855E0,2.084148407E0,8.353343964E0,9.474529629E0
5.450435620E-1,-3.917050600E0,2.120040894E0,8.372486115E0,9.483479453E0
5.474484050E-1,-3.909872293E0,2.132004976E0,8.358129501E0,9.470526666E0
5.498531970E-1,-3.938585997E0,2.127219439E0,8.329415321E0,9.456039435E0
5.522580410E-1,-4.007977962E0,2.143969059E0,8.276773453E0,9.442746924E0
5.546628850E-1,-4.012763500E0,2.160718918E0,8.183453560E0,9.366957314E0
5.570677280E-1,-4.070191383E0,2.218146563E0,7.944170952E0,9.197634706E0
5.594725720E-1,-4.137190342E0,2.328216314E0,7.537391186E0,8.907816849E0
5.618774160E-1,-4.211368084E0,2.380858421E0,7.101897717E0,8.593082051E0
5.642822600E-1,-4.335794449E0,2.323430777E0,6.943971157E0,8.509769651E0
5.666871030E-1,-4.472185612E0,2.189432621E0,7.116254330E0,8.685340237E0
5.690919470E-1,-4.584648132E0,2.055434704E0,7.221538544E0,8.797410372E0
5.714967910E-1,-4.654039860E0,1.964507341E0,7.073183537E0,8.691910115E0
5.739016350E-1,-4.723432064E0,1.916650891E0,6.891329288E0,8.571743140E0
5.763064780E-1,-4.807180882E0,1.902294040E0,6.733402729E0,8.489194482E0
5.787112700E-1,-4.874179840E0,1.892722726E0,6.520441532E0,8.358001328E0
5.811161140E-1,-4.941178799E0,1.844866276E0,6.276373863E0,8.198271060E0
5.835209580E-1,-4.972285271E0,1.804188251E0,6.104090691E0,8.077043965E0
5.859258010E-1,-4.969892502E0,1.753939033E0,5.950950146E0,7.949210102E0
5.883306450E-1,-4.936393261E0,1.727617979E0,5.759523869E0,7.779765903E0
5.907354890E-1,-4.895715237E0,1.679761529E0,5.563312531E0,7.598688886E0
5.931403330E-1,-4.847858906E0,1.648654819E0,5.412564754E0,7.450882894E0
5.955451760E-1,-4.800002098E0,1.639083505E0,5.297709465E0,7.334326176E0
5.979500200E-1,-4.759324074E0,1.639083505E0,5.213960648E0,7.247285423E0
6.003548640E-1,-4.728217602E0,1.629512191E0,5.170889854E0,7.193709304E0
6.027597080E-1,-4.694717884E0,1.624726534E0,5.149354458E0,7.155135474E0
6.051645510E-1,-4.687539577E0,1.612762451E0,5.125426292E0,7.130499610E0
6.075693950E-1,-4.666004181E0,1.607976794E0,5.106283665E0,7.101501056E0
6.099742390E-1,-4.632504463E0,1.622333765E0,5.091926575E0,7.072466379E0
6.123790300E-1,-4.610969067E0,1.610369682E0,5.087141037E0,7.052186198E0
6.147838740E-1,-4.613361835E0,1.591227055E0,5.070391178E0,7.037327452E0
6.171887180E-1,-4.625326157E0,1.572084427E0,5.067998409E0,7.039154735E0
6.195935620E-1,-4.651647091E0,1.581655741E0,5.101497650E0,7.082706673E0
6.219984050E-1,-4.701896667E0,1.574477315E0,5.111069202E0,7.121084151E0
6.244032490E-1,-4.771288395E0,1.574477315E0,5.113461971E0,7.168798023E0
6.268080930E-1,-4.838287354E0,1.552941918E0,5.137390137E0,7.225886142E0
6.292129370E-1,-4.931607246E0,1.529013634E0,5.161318302E0,7.300536921E0
6.316177800E-1,-5.008177757E0,1.505085468E0,5.161318302E0,7.347539270E0
6.340226240E-1,-5.060820103E0,1.485942841E0,5.151747227E0,7.372952307E0
6.364274680E-1,-5.113461971E0,1.442872047E0,5.154139996E0,7.402332887E0
6.388323120E-1,-5.175675392E0,1.416550994E0,5.111069202E0,7.410618117E0
6.412371550E-1,-5.228317261E0,1.423729420E0,5.072783947E0,7.422630518E0
6.436419470E-1,-5.307280540E0,1.430907965E0,5.012963295E0,7.439390119E0
6.460468430E-1,-5.381458282E0,1.414158225E0,4.922036171E0,7.428753381E0
6.484516350E-1,-5.460421085E0,1.411765337E0,4.790431023E0,7.399831699E0
6.508564780E-1,-5.544169903E0,1.392622828E0,4.627718925E0,7.354794403E0
6.532613220E-1,-5.615954876E0,1.361516118E0,4.457828522E0,7.298281334E0
6.556661660E-1,-5.687739372E0,1.323230863E0,4.302295208E0,7.253348409E0
6.580710100E-1,-5.742774487E0,1.239482164E0,4.149154663E0,7.192444595E0
6.604758530E-1,-5.757131100E0,1.170090318E0,3.986442566E0,7.099675639E0
6.628806970E-1,-5.785845280E0,1.086341500E0,3.866801500E0,7.043315789E0
6.652855410E-1,-5.778666496E0,9.810572863E-1,3.780659676E0,6.974872576E0
6.676903850E-1,-5.776273727E0,8.614161611E-1,3.725624800E0,6.927312331E0
6.700952280E-1,-5.745167255E0,7.178468108E-1,3.692125320E0,6.866879948E0
6.725000720E-1,-5.706882000E0,5.718846321E-1,3.704089403E0,6.827578817E0
6.749049160E-1,-5.702096462E0,4.211367965E-1,3.761517286E0,6.843995365E0
6.773097080E-1,-5.673382282E0,2.584248483E-1,3.852444410E0,6.862607220E0
6.797145510E-1,-5.661418438E0,1.124626622E-1,3.976871252E0,6.919523939E0
6.821193950E-1,-5.639883041E0,-3.110669367E-2,4.165904045E0,7.011704847E0
6.845242390E-1,-5.618347645E0,-1.507478207E-1,4.359723091E0,7.113068297E0
6.869290830E-1,-5.608776093E0,-2.608176768E-1,4.567898273E0,7.238238028E0
6.893339260E-1,-5.596812248E0,-3.589234054E-1,4.778466702E0,7.367962905E0
6.917387700E-1,-5.572884083E0,-4.594219327E-1,4.986642361E0,7.492309894E0
6.941436140E-1,-5.556134224E0,-5.264210105E-1,5.213960648E0,7.637612993E0
6.965484580E-1,-5.517848969E0,-5.862415433E-1,5.462814331E0,7.786698710E0
6.989533010E-1,-5.503491879E0,-6.245267391E-1,5.711667538E0,7.956230424E0
7.013581450E-1,-5.503491879E0,-6.436693072E-1,5.941378593E0,8.124205353E0
7.037629890E-1,-5.496313572E0,-6.556333899E-1,6.175875187E0,8.293416205E0
7.061678330E-1,-5.539384365E0,-6.484549642E-1,6.388836384E0,8.480713609E0
7.085726760E-1,-5.635097504E0,-6.484549642E-1,6.570691109E0,8.680368619E0
7.109774680E-1,-5.754738331E0,-6.125625968E-1,6.733402729E0,8.878679998E0
7.133823120E-1,-5.903093338E0,-5.790630579E-1,6.908079147E0,9.105129460E0
7.157871550E-1,-6.053841114E0,-5.670989752E-1,7.025327206E0,9.291168701E0
7.181919990E-1,-6.214160442E0,-5.623133183E-1,7.111468792E0,9.460706879E0
7.205968430E-1,-6.374479294E0,-5.623133183E-1,7.176074982E0,9.614896499E0
7.230016870E-1,-6.522834301E0,-5.814558864E-1,7.233502865E0,9.757511054E0
7.254065300E-1,-6.654439926E0,-6.197410822E-1,7.245467186E0,9.857101221E0
7.278113740E-1,-6.781259537E0,-6.795616150E-1,7.255038261E0,9.954037626E0
7.302162180E-1,-6.922435760E0,-7.633104324E-1,7.228717327E0,1.003778431E1
7.326210620E-1,-7.037291527E0,-8.542376757E-1,7.133004189E0,1.005648760E1
7.350259050E-1,-7.144968510E0,-9.786644578E-1,7.013363361E0,1.005960361E1
7.374307490E-1,-7.259823799E0,-1.129412293E0,6.845865726E0,1.004223537E1
7.398355930E-1,-7.357929707E0,-1.296909928E0,6.637690067E0,9.993999918E0
7.422404370E-1,-7.424928665E0,-1.469193101E0,6.398407936E0,9.910989767E0
7.446452800E-1,-7.506284714E0,-1.686939955E0,6.159125328E0,9.855196671E0
7.470500720E-1,-7.570890903E0,-1.890329838E0,5.910272121E0,9.788924993E0
7.494549160E-1,-7.637889862E0,-2.084148407E0,5.642275810E0,9.721950033E0
7.518597600E-1,-7.688138962E0,-2.299502611E0,5.364708424E0,9.652734816E0
7.542646030E-1,-7.745566845E0,-2.483749866E0,5.106283665E0,9.604007081E0
7.566694470E-1,-7.786244869E0,-2.675175667E0,4.864608288E0,9.562770927E0
7.590742910E-1,-7.867600918E0,-2.883351326E0,4.644468784E0,9.580394009E0
7.614791350E-1,-7.968099594E0,-3.113062143E0,4.455435753E0,9.645344722E0
7.638839780E-1,-8.044670105E0,-3.326023579E0,4.328616142E0,9.721937443E0
7.662888220E-1,-8.147561073E0,-3.517449379E0,4.261617184E0,9.844622014E0
7.686936660E-1,-8.233702660E0,-3.696911097E0,4.278367043E0,9.988264899E0
7.710985100E-1,-8.281558990E0,-3.859622955E0,4.362115860E0,1.012467103E1
7.735033530E-1,-8.307880402E0,-4.000799656E0,4.524827480E0,1.027138444E1
7.759081970E-1,-8.300702095E0,-4.101297855E0,4.728217602E0,1.039607335E1
7.783130410E-1,-8.274380684E0,-4.170690060E0,4.986642361E0,1.052267235E1
7.807178850E-1,-8.248059273E0,-4.189832687E0,5.261816978E0,1.064292712E1
7.831227280E-1,-8.228917122E0,-4.204189301E0,5.546562672E0,1.077750630E1
7.855275720E-1,-8.236095428E0,-4.185046673E0,5.828916073E0,1.092355923E1
7.879323640E-1,-8.221738815E0,-4.161118507E0,6.106483459E0,1.105445777E1
7.903372080E-1,-8.149953842E0,-4.141975880E0,6.448657036E0,1.118762215E1
7.927420510E-1,-8.226524353E0,-4.077369690E0,6.692724705E0,1.136191931E1
7.951468950E-1,-8.327022552E0,-3.957728624E0,6.920042992E0,1.152778884E1
7.975517390E-1,-8.362915039E0,-3.897907972E0,7.168896675E0,1.168439618E1
7.999565830E-1,-8.413164139E0,-3.885943890E0,7.384250641E0,1.184943240E1
8.023614260E-1,-8.511270523E0,-3.873979807E0,7.556533813E0,1.202292181E1
8.047662700E-1,-8.606983185E0,-3.873979807E0,7.709674358E0,1.218716365E1
8.071711140E-1,-8.673981667E0,-3.902693748E0,7.865208149E0,1.234222329E1
8.095759580E-1,-8.731410027E0,-3.945764542E0,7.977670670E0,1.246795124E1
8.119808010E-1,-8.760123253E0,-3.993621111E0,8.094919205E0,1.257841349E1
8.143856450E-1,-8.750552177E0,-4.017549038E0,8.171489716E0,1.262878093E1
8.167904890E-1,-8.755337715E0,-4.036691666E0,8.202595711E0,1.265833301E1
8.191953330E-1,-8.714659691E0,-4.053441525E0,8.149953842E0,1.260148520E1
8.216001760E-1,-8.681160927E0,-4.043870449E0,8.025527000E0,1.249498007E1
8.240050200E-1,-8.645268440E0,-4.048655987E0,7.802994728E0,1.232959888E1
8.264098120E-1,-8.616554260E0,-4.098905087E0,7.546962738E0,1.216563508E1
8.288146550E-1,-8.547162056E0,-4.163511276E0,7.211967468E0,1.193320075E1
8.312194990E-1,-8.501698494E0,-4.249652863E0,6.857829571E0,1.172042035E1
8.336243430E-1,-8.458627701E0,-4.366901398E0,6.508477688E0,1.153163008E1
8.360291870E-1,-8.425128937E0,-4.500899315E0,6.173482418E0,1.137333625E1
8.384340300E-1,-8.405985832E0,-4.615755081E0,5.843272686E0,1.122985434E1
8.408388740E-1,-8.405985832E0,-4.742574692E0,5.575276852E0,1.114613496E1
8.432437180E-1,-8.439485550E0,-4.852644444E0,5.362315655E0,1.111429276E1
8.456485620E-1,-8.489734650E0,-4.936393261E0,5.151747227E0,1.108981841E1
8.480534050E-1,-8.554341316E0,-5.000999451E0,4.981856823E0,1.109079115E1
8.504582490E-1,-8.587840080E0,-5.051248550E0,4.840680122E0,1.107692616E1
8.528630930E-1,-8.647661209E0,-5.139782906E0,4.706682205E0,1.110640671E1
8.552679370E-1,-8.683553696E0,-5.192425251E0,4.596612453E0,1.111279581E1
8.576727800E-1,-8.690732002E0,-5.254638672E0,4.515256405E0,1.111429668E1
8.600776240E-1,-8.669196129E0,-5.300102234E0,4.467400074E0,1.109971660E1
8.624824680E-1,-8.638090134E0,-5.364708424E0,4.460221291E0,1.110361525E1
8.648873120E-1,-8.621339798E0,-5.402993679E0,4.472185612E0,1.111396800E1
8.672921550E-1,-8.590232849E0,-5.458028316E0,4.493721008E0,1.112545289E1
8.696969470E-1,-8.554341316E0,-5.534598827E0,4.551148891E0,1.115892001E1
8.721017910E-1,-8.511270523E0,-5.589633465E0,4.622933388E0,1.118289950E1
8.745066350E-1,-8.489734650E0,-5.644668579E0,4.742574692E0,1.124410479E1
8.769114780E-1,-8.480163574E0,-5.678168297E0,4.893322468E0,1.131809941E1
8.793163220E-1,-8.461020470E0,-5.709274769E0,5.039284706E0,1.138328055E1
8.817211660E-1,-8.496912956E0,-5.730810165E0,5.204389095E0,1.149458050E1
8.841260100E-1,-8.539983749E0,-5.788238049E0,5.343173027E0,1.161828387E1
8.865308530E-1,-8.578269005E0,-5.814558983E0,5.477170944E0,1.172156973E1
8.889356970E-1,-8.642875671E0,-5.845665932E0,5.613562107E0,1.184834122E1
8.913405410E-1,-8.702695847E0,-5.867201328E0,5.747560024E0,1.196642857E1
8.937453850E-1,-8.769695282E0,-5.910272121E0,5.876772404E0,1.209856710E1
8.961502280E-1,-8.841479301E0,-5.950950146E0,6.001199245E0,1.223110609E1
8.985550720E-1,-8.908478737E0,-5.989234924E0,6.101697922E0,1.234757652E1
9.009599160E-1,-8.980263710E0,-6.025127411E0,6.221338749E0,1.247607119E1
9.033647600E-1,-9.059226990E0,-6.056233883E0,6.290730953E0,1.258256168E1
9.057696030E-1,-9.119047165E0,-6.082555294E0,6.360122681E0,1.267302887E1
9.081744470E-1,-9.166903496E0,-6.116054535E0,6.405586243E0,1.274636332E1
9.105792910E-1,-9.233902931E0,-6.137589931E0,6.422336102E0,1.281332800E1
9.129840830E-1,-9.317651749E0,-6.137589931E0,6.388836384E0,1.285713322E1
9.153889260E-1,-9.355937004E0,-6.154339790E0,6.329015732E0,1.286335476E1
9.177937700E-1,-9.408578873E0,-6.180660725E0,6.278766632E0,1.288971814E1
9.201986140E-1,-9.466006279E0,-6.199803352E0,6.214160442E0,1.290963309E1
9.226034580E-1,-9.504291534E0,-6.214160442E0,6.118447304E0,1.289894356E1
9.250083010E-1,-9.511469841E0,-6.223731518E0,5.989234924E0,1.284810599E1
9.274131450E-1,-9.511469841E0,-6.252445698E0,5.860022545E0,1.280238259E1
9.298179890E-1,-9.506684303E0,-6.295516491E0,5.690132141E0,1.274316201E1
9.322228330E-1,-9.477970123E0,-6.362515450E0,5.508277893E0,1.267496137E1
9.346276760E-1,-9.427721024E0,-6.434299946E0,5.307280540E0,1.258766723E1
9.370325200E-1,-9.351150513E0,-6.525227547E0,5.103890896E0,1.249289049E1
9.394373640E-1,-9.281759262E0,-6.644868374E0,4.938786030E0,1.243772239E1
9.418422080E-1,-9.198010445E0,-6.742974281E0,4.800002098E0,1.237380776E1
9.442470510E-1,-9.092725754E0,-6.833901405E0,4.692325115E0,1.230438073E1
9.466518950E-1,-8.999405861E0,-6.924828529E0,4.615755081E0,1.225755893E1
9.490567390E-1,-8.891729355E0,-7.015756130E0,4.558327198E0,1.220909627E1
9.514615830E-1,-8.784051895E0,-7.082755089E0,4.543970108E0,1.216440100E1
9.538664260E-1,-8.630910873E0,-7.166503906E0,4.560719967E0,1.210997801E1
9.562712180E-1,-8.492127419E0,-7.240681171E0,4.584648132E0,1.206493640E1
9.586760620E-1,-8.372486115E0,-7.300501823E0,4.654039860E0,1.204391704E1
9.610809050E-1,-8.252845764E0,-7.319644451E0,4.737788677E0,1.200555287E1
9.634857490E-1,-8.128418922E0,-7.348358154E0,4.838287354E0,1.197825473E1
9.658905930E-1,-8.023134232E0,-7.386643410E0,4.945964336E0,1.197479632E1
9.682954370E-1,-7.922635555E0,-7.396214962E0,5.072783947E0,1.196684114E1
9.707002800E-1,-7.862815380E0,-7.412964344E0,5.192425251E0,1.198904442E1
9.731051240E-1,-7.783852100E0,-7.422535896E0,5.304887772E0,1.199267389E1
9.755099680E-1,-7.700103283E0,-7.417750359E0,5.419743061E0,1.198700237E1
9.779148120E-1,-7.623532772E0,-7.396214962E0,5.548955917E0,1.198387080E1
9.803196550E-1,-7.544569969E0,-7.379465103E0,5.659025669E0,1.197504124E1
9.827244990E-1,-7.520641804E0,-7.355536938E0,5.747560024E0,1.198742771E1
9.851293430E-1,-7.501499176E0,-7.345965385E0,5.852844238E0,1.202046101E1
9.875341870E-1,-7.475177765E0,-7.329215527E0,5.941378593E0,1.203726142E1
9.899390300E-1,-7.456035137E0,-7.317251682E0,5.998806477E0,1.204658920E1
9.923438740E-1,-7.432106972E0,-7.331608772E0,6.063412666E0,1.207284864E1
9.947487180E-1,-7.422535896E0,-7.329215527E0,6.120840549E0,1.209446685E1
9.971535620E-1,-7.374679565E0,-7.286144733E0,6.171089649E0,1.206466540E1
9.995584050E-1,-7.338787079E0,-7.274180889E0,6.190232277E0,1.204535093E1
1.001963249E0,-7.302894592E0,-7.252645493E0,6.187839508E0,1.200926700E1
1.004368093E0,-7.264609337E0,-7.221538544E0,6.187839508E0,1.196722714E1
1.006772937E0,-7.211967468E0,-7.188039303E0,6.175875187E0,1.190889659E1
1.009177780E0,-7.168896675E0,-7.159325123E0,6.147161484E0,1.185059535E1
1.011582624E0,-7.128218651E0,-7.161718369E0,6.087340832E0,1.179650073E1
1.013987416E0,-7.099504948E0,-7.166503906E0,6.029912949E0,1.175251458E1
1.016392260E0,-7.109076023E0,-7.185646534E0,5.958128452E0,1.173336152E1
1.018797103E0,-7.113861561E0,-7.204789162E0,5.881557941E0,1.170934400E1
1.021201947E0,-7.130611420E0,-7.238288403E0,5.797809124E0,1.169841993E1
1.023606791E0,-7.180860519E0,-7.252645493E0,5.706882000E0,1.169333685E1
1.026011635E0,-7.228717327E0,-7.290930748E0,5.623133183E0,1.170605195E1
1.028416478E0,-7.255038261E0,-7.322037220E0,5.529813290E0,1.169729218E1
1.030821322E0,-7.286144733E0,-7.348358154E0,5.453242779E0,1.169718468E1
1.033226166E0,-7.305287361E0,-7.355536938E0,5.383851051E0,1.168148104E1
1.035631010E0,-7.305287361E0,-7.357929707E0,5.304887772E0,1.164681018E1
1.038035853E0,-7.305287361E0,-7.365108013E0,5.237888813E0,1.162099474E1
1.040441478E0,-7.317251682E0,-7.353144169E0,5.197210789E0,1.160266785E1
1.042845541E0,-7.293323517E0,-7.353144169E0,5.158925533E0,1.157047146E1
1.045250385E0,-7.286144733E0,-7.345965385E0,5.125426292E0,1.154647596E1
1.047655228E0,-7.257431030E0,-7.336394310E0,5.096712112E0,1.150953783E1
1.050060072E0,-7.214360237E0,-7.322037220E0,5.065605640E0,1.145947569E1
1.052464916E0,-7.159325123E0,-7.322037220E0,5.039284706E0,1.141326227E1
1.054869760E0,-7.121040344E0,-7.312466145E0,5.000999451E0,1.136623826E1
1.057274603E0,-7.085147858E0,-7.312466145E0,4.967499733E0,1.132905710E1
1.059679447E0,-7.034898758E0,-7.283751965E0,4.941178799E0,1.126756811E1
1.062084239E0,-6.979863644E0,-7.257431030E0,4.914857864E0,1.120466998E1
1.064489135E0,-6.929614544E0,-7.257431030E0,4.883750916E0,1.115978879E1
1.066893978E0,-6.884150982E0,-7.235895634E0,4.840680122E0,1.109873436E1
1.069298770E0,-6.843472958E0,-7.226324558E0,4.783252239E0,1.104230007E1
1.071703614E0,-6.831508636E0,-7.209574699E0,4.730610371E0,1.100118867E1
1.074108458E0,-6.805187702E0,-7.176074982E0,4.656432629E0,1.093110226E1
1.076513301E0,-6.786045074E0,-7.180860519E0,4.567898273E0,1.088489137E1
1.078918145E0,-6.759724140E0,-7.176074982E0,4.460221291E0,1.082051277E1
1.081322989E0,-6.750152588E0,-7.168896675E0,4.357329845E0,1.076772784E1
1.083727833E0,-6.709474564E0,-7.166503906E0,4.237689018E0,1.069270010E1
1.086132676E0,-6.704689026E0,-7.147361279E0,4.134797573E0,1.063645520E1
1.088537520E0,-6.673582554E0,-7.140182972E0,4.024727821E0,1.056964290E1
1.090942364E0,-6.671189308E0,-7.137789726E0,3.921836376E0,1.052775425E1
1.093347208E0,-6.661618233E0,-7.111468792E0,3.811766386E0,1.046325517E1
1.095752051E0,-6.647261143E0,-7.104290485E0,3.711267948E0,1.041299831E1
1.098156895E0,-6.630511761E0,-7.097112179E0,3.594019651E0,1.035614140E1
1.100561739E0,-6.616154671E0,-7.094718933E0,3.476771355E0,1.030516756E1
1.102966583E0,-6.597012043E0,-7.097112179E0,3.364308596E0,1.025710200E1
1.105371426E0,-6.580262184E0,-7.092326164E0,3.259024382E0,1.020892652E1
1.107776270E0,-6.580262184E0,-7.097112179E0,3.144168854E0,1.017618050E1
1.110181114E0,-6.544369698E0,-7.101897717E0,3.024527788E0,1.011995525E1
1.112585958E0,-6.503692150E0,-7.101897717E0,2.902493954E0,1.005780463E1
1.114990801E0,-6.467799664E0,-7.104290485E0,2.804388046E0,1.000839488E1
1.117395645E0,-6.436692715E0,-7.099504948E0,2.689532757E0,9.953269315E0
1.119800489E0,-6.405586243E0,-7.101897717E0,2.562713146E0,9.901312285E0
1.122205333E0,-6.388836384E0,-7.123433113E0,2.457428932E0,9.879245245E0
1.124610176E0,-6.369693756E0,-7.161718369E0,2.333002090E0,9.864385804E0
1.127015020E0,-6.352943897E0,-7.195217609E0,2.199003935E0,9.847165628E0
1.129419812E0,-6.338587284E0,-7.231110096E0,2.072184324E0,9.836696084E0
1.131824655E0,-6.352943897E0,-7.252645493E0,1.964507341E0,9.839718080E0
1.134229499E0,-6.360122681E0,-7.290930748E0,1.859223247E0,9.852184670E0
1.136634343E0,-6.381658077E0,-7.314858913E0,1.749153376E0,9.863683808E0
1.139039187E0,-6.384050846E0,-7.341179848E0,1.643869162E0,9.866677890E0
1.141444030E0,-6.376872540E0,-7.372286797E0,1.545763373E0,9.869371834E0
1.143848874E0,-6.376872540E0,-7.420143127E0,1.454836130E0,9.891388961E0
1.146253718E0,-6.393621922E0,-7.463213921E0,1.361516118E0,9.921274587E0
1.148658562E0,-6.410371780E0,-7.499105930E0,1.275374413E0,9.947664852E0
1.151063405E0,-6.436692715E0,-7.537391186E0,1.208375454E0,9.985161502E0
1.153468249E0,-6.458228111E0,-7.604390144E0,1.136590719E0,1.004127971E1
1.155873093E0,-6.455835342E0,-7.657032490E0,1.062413216E0,1.007157775E1
1.158277937E0,-6.453442574E0,-7.654639721E0,9.882357717E-1,1.006066798E1
1.160682780E0,-6.484549522E0,-7.661818027E0,9.212366939E-1,1.007975769E1
1.163087624E0,-6.530013084E0,-7.645068169E0,8.590233326E-1,1.009088991E1
1.165492468E0,-6.556334019E0,-7.640282631E0,7.896314859E-1,1.009866092E1
1.167897312E0,-6.556334019E0,-7.654639721E0,7.441678643E-1,1.010607792E1
1.170302155E0,-6.592226505E0,-7.661818027E0,6.843472719E-1,1.013060891E1
1.172706999E0,-6.632904530E0,-7.628318787E0,6.221339107E-1,1.012786851E1
1.175111843E0,-6.664011002E0,-7.606783390E0,5.575276613E-1,1.012832826E1
1.177516687E0,-6.721438885E0,-7.609176159E0,5.072783828E-1,1.016536442E1
1.179921530E0,-6.781259537E0,-7.604390144E0,4.570291340E-1,1.019907378E1
1.182326374E0,-6.848258495E0,-7.597211838E0,4.115654826E-1,1.023648662E1
1.184731218E0,-6.900900364E0,-7.601997375E0,3.900300860E-1,1.027447874E1
1.187136062E0,-6.946363926E0,-7.628318787E0,3.828516304E-1,1.032423337E1
1.189540905E0,-6.991827965E0,-7.661818027E0,3.900300860E-1,1.037984765E1
1.191945749E0,-7.056434155E0,-7.685746193E0,4.067798555E-1,1.044171573E1
1.194350593E0,-7.111468792E0,-7.695317745E0,4.331009090E-1,1.048706250E1
1.196755437E0,-7.154539585E0,-7.735995770E0,4.618147612E-1,1.054733806E1
1.199160280E0,-7.216753006E0,-7.767102242E0,4.977070987E-1,1.061400554E1
1.201565124E0,-7.295716286E0,-7.817351341E0,5.623133183E-1,1.070769137E1
1.203969916E0,-7.357929707E0,-7.874779224E0,6.173482537E-1,1.079501720E1
1.206374760E0,-7.379465103E0,-7.939385414E0,7.034898400E-1,1.086210127E1
1.208779655E0,-7.369893551E0,-7.968099594E0,7.920243144E-1,1.088270392E1
1.211184447E0,-7.379465103E0,-7.984848976E0,8.997012973E-1,1.090980205E1
1.213589291E0,-7.381857872E0,-7.982456207E0,1.004985452E0,1.091885656E1
1.215994135E0,-7.393822193E0,-7.963313580E0,1.079162955E0,1.092005323E1
1.218398978E0,-7.393822193E0,-7.953742504E0,1.155733347E0,1.092091324E1
1.220803822E0,-7.410571575E0,-7.958528042E0,1.239482164E0,1.094491004E1
1.223208666E0,-7.396214962E0,-7.953742504E0,1.301695466E0,1.093894084E1
1.225613510E0,-7.398607731E0,-7.936992645E0,1.385444283E0,1.093867928E1
1.228018353E0,-7.410571575E0,-7.896314621E0,1.440479279E0,1.092443757E1
1.230423197E0,-7.448856831E0,-7.848458290E0,1.493121386E0,1.092305713E1
1.232828041E0,-7.494320393E0,-7.822137356E0,1.536192179E0,1.094123199E1
1.235232885E0,-7.530212879E0,-7.783852100E0,1.564906001E0,1.094264092E1
1.237637728E0,-7.592426300E0,-7.731209755E0,1.586441398E0,1.095140802E1
1.240042572E0,-7.647460938E0,-7.697710514E0,1.596012712E0,1.096748205E1
1.242447416E0,-7.704888821E0,-7.666603565E0,1.600798368E0,1.098656804E1
1.244852260E0,-7.767102242E0,-7.657032490E0,1.610369682E0,1.102503126E1
1.247257103E0,-7.841279984E0,-7.606783390E0,1.624726534E0,1.104484321E1
1.249661947E0,-7.901100159E0,-7.599604607E0,1.636690736E0,1.108422891E1
1.252066791E0,-7.941778183E0,-7.597211838E0,1.646261930E0,1.111303949E1
1.254471635E0,-7.970492363E0,-7.604390144E0,1.663011789E0,1.114096523E1
1.256876478E0,-7.965706348E0,-7.587640762E0,1.670190215E0,1.112718766E1
1.259281322E0,-7.970492363E0,-7.568498135E0,1.670190215E0,1.111757383E1
1.261686166E0,-7.975277901E0,-7.561319351E0,1.686939955E0,1.111864984E1
1.264091010E0,-7.975277901E0,-7.544569969E0,1.684547186E0,1.110690294E1
1.266495853E0,-7.984848976E0,-7.518248558E0,1.698904037E0,1.109811468E1
1.268900697E0,-7.980063438E0,-7.530212879E0,1.694118381E0,1.110205186E1
1.271305541E0,-7.963313580E0,-7.546962738E0,1.698904037E0,1.110212974E1
1.273710385E0,-7.929814339E0,-7.558926582E0,1.718046665E0,1.108922950E1
1.276115228E0,-7.910671711E0,-7.575676441E0,1.710868239E0,1.108587708E1
1.278520072E0,-7.862815380E0,-7.587640762E0,1.710868239E0,1.105998319E1
1.280924916E0,-7.841279984E0,-7.590033531E0,1.701296926E0,1.104484912E1
1.283329760E0,-7.819744587E0,-7.623532772E0,1.679761529E0,1.104935546E1
1.285734551E0,-7.812565804E0,-7.628318787E0,1.674975872E0,1.104685367E1
1.288139395E0,-7.776673794E0,-7.666603565E0,1.636690736E0,1.104229243E1
1.290544239E0,-7.764709473E0,-7.714460373E0,1.610369682E0,1.106331336E1
1.292949083E0,-7.755138397E0,-7.759923935E0,1.572084427E0,1.108287149E1
1.295353926E0,-7.726424217E0,-7.793423176E0,1.524227977E0,1.107963659E1
1.297758770E0,-7.702496052E0,-7.850851059E0,1.481157184E0,1.109766346E1
1.300163614E0,-7.683353424E0,-7.932207108E0,1.430907965E0,1.113558831E1
1.302568458E0,-7.642675400E0,-7.992027760E0,1.397408366E0,1.114610897E1
1.304973301E0,-7.625925541E0,-8.061419487E0,1.335195065E0,1.117693922E1
1.307378145E0,-7.623532772E0,-8.133204460E0,1.270588875E0,1.121969976E1
1.309782989E0,-7.594819069E0,-8.183453560E0,1.220339537E0,1.123118059E1
1.312187833E0,-7.585247993E0,-8.243273735E0,1.160519004E0,1.126207589E1
1.314592676E0,-7.575676441E0,-8.298309326E0,1.091127157E0,1.128908188E1
1.316997520E0,-7.590033531E0,-8.353343964E0,1.036092162E0,1.133403950E1
1.319402364E0,-7.578069210E0,-8.434700012E0,9.667003751E-1,1.138006181E1
1.321807208E0,-7.570890903E0,-8.487341881E0,9.020941257E-1,1.140908126E1
1.324212051E0,-7.566105366E0,-8.566305161E0,8.398807645E-1,1.146005821E1
1.326616895E0,-7.561319351E0,-8.628518105E0,7.752745152E-1,1.149895324E1
1.329021739E0,-7.563712597E0,-8.678768158E0,7.178468108E-1,1.153455977E1
1.331426583E0,-7.554141045E0,-8.743373871E0,6.364908218E-1,1.157224067E1
1.333831426E0,-7.546962738E0,-8.817551613E0,5.599204898E-1,1.161978373E1
1.336236270E0,-7.527820110E0,-8.894122124E0,5.000999570E-1,1.166291490E1
1.338641114E0,-7.523034573E0,-8.961120605E0,4.163511395E-1,1.170773590E1
1.341045958E0,-7.511070251E0,-9.047262192E0,3.421736360E-1,1.176376693E1
1.343450801E0,-7.491927624E0,-9.104690552E0,2.679961324E-1,1.179390484E1
1.345855645E0,-7.475177765E0,-9.140582085E0,1.986042857E-1,1.180965567E1
1.348260489E0,-7.465606689E0,-9.166903496E0,1.268195957E-1,1.182300665E1
1.350665333E0,-7.453642368E0,-9.174081802E0,7.657032460E-2,1.182059324E1
1.353070176E0,-7.432106972E0,-9.171689034E0,1.435693540E-2,1.180492693E1
1.355475020E0,-7.434499741E0,-9.176474571E0,-3.349951655E-2,1.181019027E1
1.357879864E0,-7.427321434E0,-9.154939651E0,-7.178468257E-2,1.178911264E1
1.360284708E0,-7.434499741E0,-9.142974854E0,-1.316052526E-1,1.178486722E1
1.362689551E0,-7.441678524E0,-9.135796547E0,-1.722832322E-1,1.178435570E1
1.365094395E0,-7.453642368E0,-9.061619759E0,-1.818545163E-1,1.173468399E1
1.367499239E0,-7.513463020E0,-8.944371223E0,-1.579262912E-1,1.168241601E1
1.369904083E0,-7.585247993E0,-9.154939651E0,-3.732803464E-1,1.189488316E1
1.372308926E0,-7.609176159E0,-9.293723106E0,-3.852444589E-1,1.201753986E1
1.374713770E0,-7.647460938E0,-9.176474571E0,-1.603191197E-1,1.194642401E1
1.377118614E0,-7.642675400E0,-9.164510727E0,-2.057827413E-1,1.193486869E1
1.379523458E0,-7.630711555E0,-9.253045082E0,-3.876372576E-1,1.199986937E1
1.381928301E0,-7.623532772E0,-9.269794464E0,-4.450650215E-1,1.201022166E1
1.384333145E0,-7.637889862E0,-9.245866776E0,-3.876372576E-1,1.199890314E1
1.386737989E0,-7.683353424E0,-9.198010445E0,-3.014956415E-1,1.198867030E1
1.389142833E0,-7.712067604E0,-9.116654396E0,-2.560320199E-1,1.194382378E1
1.391547676E0,-7.771887779E0,-9.157332420E0,-3.158525825E-1,1.201493818E1
1.393952468E0,-7.834101200E0,-9.241081238E0,-3.517449200E-1,1.212000200E1
1.396357364E0,-7.891529083E0,-9.214759827E0,-2.273181528E-1,1.213423683E1
1.398762208E0,-7.903493404E0,-9.178867340E0,-1.507478207E-1,1.211360964E1
1.401167051E0,-7.917850018E0,-9.236295700E0,-1.722832322E-1,1.216680684E1
1.403571895E0,-7.953742504E0,-9.272188187E0,-1.722832322E-1,1.221741278E1
1.405976687E0,-8.023134232E0,-9.279366493E0,-1.339980662E-1,1.226765181E1
1.408381530E0,-8.087740898E0,-9.272188187E0,-1.052841991E-1,1.230431271E1
1.410786374E0,-8.147561073E0,-9.291330338E0,-6.939185411E-2,1.235784715E1
1.413191218E0,-8.219346046E0,-9.317651749E0,-4.067798331E-2,1.242489188E1
1.415596062E0,-8.267202377E0,-9.367900848E0,-6.460621208E-2,1.249433373E1
1.418000905E0,-8.350951195E0,-9.413364410E0,-9.332008660E-2,1.258405833E1
1.420405749E0,-8.417949677E0,-9.461220741E0,-7.417750359E-2,1.266420455E1
1.422810593E0,-8.465806961E0,-9.521040916E0,-6.939185411E-2,1.274067984E1
1.425215437E0,-8.528019905E0,-9.626325607E0,-1.076770201E-1,1.286098218E1
1.427620280E0,-8.628518105E0,-9.724431038E0,-1.459621787E-1,1.300143025E1
1.430025124E0,-8.690732002E0,-9.839286804E0,-1.603191197E-1,1.312882667E1
1.432429968E0,-8.750552177E0,-9.963713646E0,-1.914258152E-1,1.326214149E1
1.434834812E0,-8.784051895E0,-1.010010433E1,-2.488535494E-1,1.338781548E1
1.437239655E0,-8.803194046E0,-1.025085258E1,-3.373879790E-1,1.351628776E1
1.439644499E0,-8.798408508E0,-1.038245773E1,-4.235295951E-1,1.361568207E1
1.442049343E0,-8.781659126E0,-1.050927734E1,-5.072783828E-1,1.370473563E1
1.444454187E0,-8.760123253E0,-1.061216831E1,-5.742774606E-1,1.377271470E1
1.446859030E0,-8.705088615E0,-1.072941685E1,-6.580262184E-1,1.383227936E1
1.449263874E0,-8.611768723E0,-1.082752228E1,-7.202396393E-1,1.385339469E1
1.451668718E0,-8.530412674E0,-1.089452171E1,-7.752745152E-1,1.385855672E1
1.454073562E0,-8.425128937E0,-1.095912743E1,-8.183453679E-1,1.384756154E1
1.456478405E0,-8.303094864E0,-1.099501991E1,-8.327022791E-1,1.380308807E1
1.458883249E0,-8.178668022E0,-1.102612686E1,-8.494520187E-1,1.375455026E1
1.461288093E0,-8.037490845E0,-1.102134132E1,-8.374879360E-1,1.366647759E1
1.463692937E0,-7.881958008E0,-1.099980545E1,-8.255237937E-1,1.355737701E1
1.466097780E0,-7.668996811E0,-1.095434189E1,-8.063812256E-1,1.339631923E1
1.468502624E0,-7.472784996E0,-1.088495064E1,-7.561319470E-1,1.322484032E1
1.470907468E0,-7.269395351E0,-1.081316566E1,-7.058826685E-1,1.304863712E1
1.473312312E0,-7.082755089E0,-1.070788097E1,-6.364908218E-1,1.285415323E1
1.475717155E0,-6.898507595E0,-1.057627583E1,-5.766702294E-1,1.264039422E1
1.478121999E0,-6.726224422E0,-1.046381378E1,-5.072783828E-1,1.244953112E1
1.480526843E0,-6.582654953E0,-1.030110168E1,-4.259224236E-1,1.223214830E1
1.482931687E0,-6.455835342E0,-1.013599682E1,-3.541377485E-1,1.202254778E1
1.485336530E0,-6.362515450E0,-1.000678444E1,-2.799602449E-1,1.186152247E1
1.487741374E0,-6.309873104E0,-9.834501266E0,-2.321037948E-1,1.168699217E1
1.490146218E0,-6.269195557E0,-9.669396400E0,-1.555334777E-1,1.152493949E1
1.492551062E0,-6.242874146E0,-9.521040916E0,-8.135596663E-2,1.138553102E1
1.494955905E0,-6.242874146E0,-9.377471924E0,-2.153540403E-2,1.126547474E1
1.497360749E0,-6.250052929E0,-9.236295700E0,3.828516230E-2,1.115229957E1
1.499765593E0,-6.271588326E0,-9.099904060E0,1.124626622E-1,1.105231749E1
1.502170437E0,-6.290730953E0,-8.946763992E0,1.746760458E-1,1.093839081E1
1.504575280E0,-6.302694798E0,-8.815158844E0,2.201396823E-1,1.083879369E1
1.506980124E0,-6.329015732E0,-8.676374435E0,2.751746178E-1,1.074298071E1
1.509384968E0,-6.352943897E0,-8.516056061E0,2.967100143E-1,1.062878845E1
1.511789812E0,-6.350551128E0,-8.358129501E0,3.182454109E-1,1.050186215E1
1.514194655E0,-6.369693756E0,-8.171489716E0,3.397808075E-1,1.036637322E1
1.516599499E0,-6.381658077E0,-8.011170387E0,3.565305769E-1,1.024848891E1
1.519004343E0,-6.388836384E0,-7.843672752E0,3.732803464E-1,1.012322927E1
1.521409187E0,-6.400800705E0,-7.678567886E0,3.732803464E-1,1.000349902E1
1.523814030E0,-6.396014690E0,-7.503891945E0,3.852444589E-1,9.867411592E0
1.526218874E0,-6.372086525E0,-7.324429989E0,3.852444589E-1,9.715923767E0
1.528623718E0,-6.352943897E0,-7.159325123E0,3.661018610E-1,9.578614876E0
1.531028562E0,-6.329015732E0,-6.982256413E0,3.565305769E-1,9.430559835E0
1.533433405E0,-6.283552170E0,-6.807580471E0,3.349951804E-1,9.270296733E0
1.535838249E0,-6.254838467E0,-6.647261143E0,3.206382394E-1,9.133011213E0
1.538243093E0,-6.216553211E0,-6.486942291E0,2.871387303E-1,8.989349407E0
1.540647937E0,-6.161518097E0,-6.343372822E0,2.847459018E-1,8.847811269E0
1.543052780E0,-6.137589931E0,-6.204588890E0,2.775674164E-1,8.731779723E0
1.545457624E0,-6.120840549E0,-6.075376511E0,2.440679073E-1,8.627540665E0
1.547862468E0,-6.089733601E0,-5.948556900E0,2.177468538E-1,8.515726523E0
1.550267312E0,-6.041877270E0,-5.848058701E0,1.938186288E-1,8.410804787E0
1.552672155E0,-6.001199245E0,-5.742774487E0,1.363908947E-1,8.307373452E0
1.555076999E0,-5.991627693E0,-5.659025669E0,8.614161611E-2,8.242062504E0
1.557481843E0,-5.972485542E0,-5.594419479E0,3.110669367E-2,8.183463844E0
1.559886687E0,-5.977271080E0,-5.534598827E0,-2.392822690E-2,8.146172494E0
1.562291530E0,-5.967699528E0,-5.481956482E0,-8.374879509E-2,8.103844667E0
1.564696374E0,-5.982056618E0,-5.479563713E0,-1.459621787E-1,8.113687498E0
1.567101218E0,-5.991627693E0,-5.455635548E0,-2.225325108E-1,8.106360611E0
1.569506062E0,-6.010770321E0,-5.438885689E0,-2.847459018E-1,8.111221709E0
1.571910905E0,-6.037091732E0,-5.424529076E0,-3.493520916E-1,8.123671532E0
1.574315749E0,-6.056233883E0,-5.448457241E0,-4.115654826E-1,8.156778856E0
1.576720593E0,-6.099305153E0,-5.474778175E0,-4.905286431E-1,8.210684367E0
1.579125437E0,-6.151947021E0,-5.503491879E0,-5.431707501E-1,8.272237271E0
1.581530280E0,-6.202196121E0,-5.536991596E0,-6.197410822E-1,8.337241251E0
1.583935124E0,-6.223731518E0,-5.568098068E0,-7.106683254E-1,8.381145481E0
1.586339968E0,-6.266802311E0,-5.608776093E0,-7.896314859E-1,8.447171026E0
1.588744812E0,-6.295516491E0,-5.656632900E0,-8.709874153E-1,8.508210313E0
1.591149655E0,-6.321837425E0,-5.702096462E0,-9.667003751E-1,8.568199467E0
1.593554499E0,-6.352943897E0,-5.757131100E0,-1.040877819E0,8.636427577E0
1.595959343E0,-6.393621922E0,-5.804987907E0,-1.119840980E0,8.708061191E0
1.598364187E0,-6.419943333E0,-5.864808083E0,-1.208375454E0,8.779055614E0
1.600769030E0,-6.474977970E0,-5.948556900E0,-1.272981644E0,8.884320524E0
1.603173874E0,-6.513263226E0,-6.032305717E0,-1.359123230E0,8.981009190E0
1.605578718E0,-6.539584160E0,-6.130411625E0,-1.421336651E0,9.075698626E0
1.607983562E0,-6.541976929E0,-6.180660725E0,-1.500299811E0,9.124085086E0
1.610388405E0,-6.561119556E0,-6.259624004E0,-1.598405480E0,9.207935848E0
1.612793249E0,-6.561119556E0,-6.338587284E0,-1.686939955E0,9.277485920E0
1.615198093E0,-6.573083878E0,-6.434299946E0,-1.780260086E0,9.368829886E0
1.617602937E0,-6.580262184E0,-6.515655994E0,-1.871187329E0,9.447484611E0
1.620007780E0,-6.580262184E0,-6.594619274E0,-1.959721804E0,9.519945553E0
1.622412624E0,-6.556334019E0,-6.690331936E0,-2.065006018E0,9.592200323E0
1.624817468E0,-6.549155712E0,-6.790830612E0,-2.148754835E0,9.675947927E0
1.627222312E0,-6.534798622E0,-6.876972198E0,-2.256431818E0,9.751298590E0
1.629627155E0,-6.501298904E0,-6.979863644E0,-2.347358942E0,9.823211182E0
1.632031999E0,-6.463014126E0,-7.051648140E0,-2.438286304E0,9.871247803E0
1.634436843E0,-6.405586243E0,-7.144968510E0,-2.531606436E0,9.924270314E0
1.636841687E0,-6.350551128E0,-7.233502865E0,-2.610569477E0,9.973371362E0
1.639246530E0,-6.273981094E0,-7.314858913E0,-2.687139750E0,1.000453496E1
1.641651374E0,-6.195017815E0,-7.417750359E0,-2.758924484E0,1.005051891E1
1.644056218E0,-6.128018856E0,-7.520641804E0,-2.825923443E0,1.010438081E1
1.646461062E0,-6.034698486E0,-7.635497093E0,-2.897708178E0,1.015456126E1
1.648865905E0,-5.958128452E0,-7.724031448E0,-2.962314367E0,1.019486453E1
1.651270749E0,-5.876772404E0,-7.819744587E0,-3.012563705E0,1.023525278E1
1.653675593E0,-5.783452511E0,-7.910671711E0,-3.077169895E0,1.027112576E1
1.656080437E0,-5.704489231E0,-8.001599312E0,-3.117847919E0,1.030959575E1
1.658485280E0,-5.589633465E0,-8.087740898E0,-3.144168854E0,1.032188708E1
1.660890124E0,-5.498706341E0,-8.161917686E0,-3.160918713E0,1.033654095E1
1.663294968E0,-5.410171986E0,-8.226524353E0,-3.184846878E0,1.034837734E1
1.665699812E0,-5.307280540E0,-8.262416840E0,-3.187239647E0,1.032440097E1
1.668104655E0,-5.237888813E0,-8.305487633E0,-3.153740168E0,1.031322845E1
1.670509499E0,-5.134997368E0,-8.355736732E0,-3.141776085E0,1.029841208E1
1.672914343E0,-5.056034088E0,-8.370093346E0,-3.079562664E0,1.025210464E1
1.675319187E0,-4.984249592E0,-8.401200294E0,-3.024527788E0,1.022598058E1
1.677724030E0,-4.934000492E0,-8.417949677E0,-2.950350285E0,1.019366492E1
1.680128874E0,-4.888536453E0,-8.446663857E0,-2.861815929E0,1.017024628E1
1.682533718E0,-4.835894585E0,-8.451449394E0,-2.766103029E0,1.012246014E1
1.684938562E0,-4.807180882E0,-8.444271088E0,-2.653640270E0,1.007256218E1
1.687343405E0,-4.785645485E0,-8.451449394E0,-2.538784742E0,1.003866662E1
1.689748249E0,-4.764110088E0,-8.434700012E0,-2.428714991E0,9.986969797E0
1.692153093E0,-4.742574692E0,-8.441878319E0,-2.306680918E0,9.953798326E0
1.694557937E0,-4.728217602E0,-8.410771370E0,-2.179861546E0,9.891860952E0
1.696962780E0,-4.725824833E0,-8.353343964E0,-2.062613010E0,9.816626109E0
1.699367624E0,-4.728217602E0,-8.307880402E0,-1.931007862E0,9.752215636E0
1.701772468E0,-4.754538536E0,-8.264809608E0,-1.797009826E0,9.702677923E0
1.704177312E0,-4.761716843E0,-8.240880966E0,-1.639083505E0,9.657777235E0
1.706582155E0,-4.773681164E0,-8.197810173E0,-1.514656782E0,9.606576323E0
1.708986999E0,-4.797609329E0,-8.118846893E0,-1.375872970E0,9.530254801E0
1.711391843E0,-4.811966419E0,-8.061419487E0,-1.239482164E0,9.469837433E0
1.713796687E0,-4.847858906E0,-7.999206066E0,-1.110269666E0,9.419221432E0
1.716201530E0,-4.869394302E0,-7.941778183E0,-9.882357717E-1,9.368001469E0
1.718606374E0,-4.910071850E0,-7.886743546E0,-8.997012973E-1,9.333755501E0
1.721011218E0,-4.957928658E0,-7.829315662E0,-7.872386575E-1,9.300483053E0
1.723416062E0,-4.969892502E0,-7.783852100E0,-6.843472719E-1,9.260481423E0
1.725820905E0,-4.998606682E0,-7.738388538E0,-6.077769399E-1,9.232449228E0
1.728225749E0,-5.044070244E0,-7.671389580E0,-5.264210105E-1,9.196193875E0
1.730630593E0,-5.058426857E0,-7.616354465E0,-4.522434771E-1,9.154291986E0
1.733035437E0,-5.065605640E0,-7.578069210E0,-3.613162339E-1,9.122392388E0
1.735440280E0,-5.087141037E0,-7.520641804E0,-3.014956415E-1,9.084599974E0
1.737845124E0,-5.094319344E0,-7.467999458E0,-2.392822653E-1,9.043249498E0
1.740249968E0,-5.108676434E0,-7.398607731E0,-1.722832322E-1,8.992644370E0
1.742654812E0,-5.118247509E0,-7.362715244E0,-1.148554832E-1,8.967676684E0
1.745059655E0,-5.132604599E0,-7.307680130E0,-7.417750359E-2,8.930359520E0
1.747464499E0,-5.151747227E0,-7.226324558E0,-2.632104978E-2,8.874737118E0
1.749869343E0,-5.158925533E0,-7.166503906E0,-1.196411345E-2,8.830256737E0
1.752274187E0,-5.146961689E0,-7.113861561E0,1.435693540E-2,8.780572137E0
1.754679030E0,-5.142175674E0,-7.054041386E0,3.828516230E-2,8.729429322E0
1.757083874E0,-5.144568920E0,-7.010970116E0,5.742774159E-2,8.696182455E0
1.759488718E0,-5.132604599E0,-6.979863644E0,5.503492057E-2,8.664014964E0
1.761893562E0,-5.103890896E0,-6.934400082E0,4.785645381E-2,8.610336637E0
1.764298405E0,-5.070391178E0,-6.891329288E0,3.110669367E-2,8.555714680E0
1.766703249E0,-5.012963295E0,-6.867401123E0,1.435693540E-2,8.502423496E0
1.769108093E0,-4.998606682E0,-6.857829571E0,-2.392822690E-2,8.486251690E0
1.771512937E0,-4.960321426E0,-6.836294174E0,-6.939185411E-2,8.446568648E0
1.773917780E0,-4.938786030E0,-6.807580471E0,-1.052841991E-1,8.411054873E0
1.776322624E0,-4.922036171E0,-6.783652306E0,-1.698904037E-1,8.382913659E0
1.778727468E0,-4.878965378E0,-6.757331371E0,-2.321037948E-1,8.337847599E0
1.781132312E0,-4.876572609E0,-6.754938126E0,-2.799602449E-1,8.335977881E0
1.783537155E0,-4.840680122E0,-6.733402729E0,-3.493520916E-1,8.300177302E0
1.785941999E0,-4.823930264E0,-6.714260101E0,-4.235295951E-1,8.278343386E0
1.788346843E0,-4.819144726E0,-6.711867332E0,-4.761717021E-1,8.276476211E0
1.790751687E0,-4.802394867E0,-6.702296257E0,-5.575276613E-1,8.264055219E0
1.793156530E0,-4.800002098E0,-6.692724705E0,-6.293123364E-1,8.260061630E0
1.795561374E0,-4.788038254E0,-6.709474564E0,-7.130611539E-1,8.273500798E0
1.797966218E0,-4.804787636E0,-6.699903488E0,-7.920243144E-1,8.282632039E0
1.800371062E0,-4.807180882E0,-6.707081795E0,-8.853443861E-1,8.299263155E0
1.802775905E0,-4.802394867E0,-6.704689026E0,-9.667003751E-1,8.303635409E0
1.805180749E0,-4.797609329E0,-6.711867332E0,-1.045663476E0,8.316226937E0
1.807585593E0,-4.788038254E0,-6.745367050E0,-1.138983607E0,8.350004229E0
1.809990437E0,-4.776073933E0,-6.776473522E0,-1.210768223E0,8.378390973E0
1.812395280E0,-4.764110088E0,-6.814758778E0,-1.292124271E0,8.414705418E0
1.814800124E0,-4.766502857E0,-6.841079712E0,-1.371087432E0,8.449840345E0
1.817204968E0,-4.744967461E0,-6.874579430E0,-1.445264935E0,8.477225329E0
1.819609812E0,-4.728217602E0,-6.881757736E0,-1.538584948E0,8.490104526E0
1.822014655E0,-4.721039295E0,-6.900900364E0,-1.627119422E0,8.518107505E0
1.824419499E0,-4.709074974E0,-6.946363926E0,-1.686939955E0,8.559972273E0
1.826824343E0,-4.673182487E0,-6.960721016E0,-1.751546144E0,8.564939318E0
1.829229187E0,-4.644468784E0,-6.977470875E0,-1.806581140E0,8.574376100E0
1.831634030E0,-4.627718925E0,-6.982256413E0,-1.859223247E0,8.580466080E0
1.834038874E0,-4.618147850E0,-6.994220734E0,-1.907079697E0,8.595543392E0
1.836443718E0,-4.627718925E0,-7.013363361E0,-1.964507341E0,8.629156227E0
1.838848562E0,-4.627718925E0,-7.006184578E0,-2.002792597E0,8.632125056E0
1.841253405E0,-4.630111694E0,-7.010970116E0,-2.057827473E0,8.650219082E0
1.843658249E0,-4.637290478E0,-7.042077065E0,-2.088934183E0,8.686711598E0
1.846063093E0,-4.656432629E0,-7.042077065E0,-2.117648125E0,8.703886936E0
1.848467937E0,-4.666004181E0,-7.054041386E0,-2.148754835E0,8.726296020E0
1.850872780E0,-4.666004181E0,-7.070790768E0,-2.191825628E0,8.750530080E0
1.853277624E0,-4.656432629E0,-7.063612461E0,-2.225325108E0,8.748088800E0
1.855682468E0,-4.682754040E0,-7.075576782E0,-2.256431818E0,8.779718489E0
1.858087312E0,-4.699503899E0,-7.101897717E0,-2.285145521E0,8.817265910E0
1.860492155E0,-4.689932346E0,-7.128218651E0,-2.321038008E0,8.842747536E0
1.862896999E0,-4.670789719E0,-7.152146816E0,-2.359323025E0,8.862047495E0
1.865301843E0,-4.675575256E0,-7.185646534E0,-2.400001049E0,8.902501060E0
1.867706687E0,-4.663611412E0,-7.204789162E0,-2.431107759E0,8.920120134E0
1.870111530E0,-4.651647091E0,-7.221538544E0,-2.450250387E0,8.932646112E0
1.872516374E0,-4.634897232E0,-7.238288403E0,-2.450250387E0,8.937495080E0
1.874921218E0,-4.637290478E0,-7.259823799E0,-2.469393015E0,8.961439975E0
1.877326062E0,-4.622933388E0,-7.288537979E0,-2.474178553E0,8.978633442E0
1.879730905E0,-4.594219685E0,-7.302894592E0,-2.467000246E0,8.973584242E0
1.882135749E0,-4.575077057E0,-7.338787079E0,-2.457428932E0,8.990443972E0
1.884540593E0,-4.551148891E0,-7.362715244E0,-2.457428932E0,8.997860243E0
1.886945437E0,-4.541577339E0,-7.391428947E0,-2.440679073E0,9.011995392E0
1.889350280E0,-4.522434711E0,-7.396214962E0,-2.421536446E0,9.001124943E0
1.891755124E0,-4.488935471E0,-7.391428947E0,-2.409572363E0,8.977182326E0
1.894159968E0,-4.486542225E0,-7.408178806E0,-2.385644197E0,8.983399835E0
1.896564812E0,-4.445864677E0,-7.396214962E0,-2.361716032E0,8.946921879E0
1.898969655E0,-4.421936035E0,-7.396214962E0,-2.335394859E0,8.928134363E0
1.901374499E0,-4.398007870E0,-7.377072334E0,-2.301895380E0,8.891703537E0
1.903779343E0,-4.364508629E0,-7.360322475E0,-2.258824587E0,8.850173503E0
1.906184187E0,-4.345366001E0,-7.345965385E0,-2.215753794E0,8.817878316E0
1.908589030E0,-4.359723091E0,-7.307680130E0,-2.170290232E0,8.781772828E0
1.910993874E0,-4.352544308E0,-7.290930748E0,-2.124826431E0,8.753125184E0
1.913398718E0,-4.366901398E0,-7.262216568E0,-2.079362869E0,8.725443670E0
1.915803562E0,-4.350151539E0,-7.252645493E0,-2.031506538E0,8.697798794E0
1.918208405E0,-4.352544308E0,-7.233502865E0,-1.969292998E0,8.668697743E0
1.920613301E0,-4.352544308E0,-7.200003147E0,-1.935793519E0,8.633190825E0
1.923018093E0,-4.354937077E0,-7.200003147E0,-1.892722726E0,8.624843278E0
1.925422989E0,-4.362115860E0,-7.176074982E0,-1.832902193E0,8.595559166E0
1.927827833E0,-4.366901398E0,-7.152146816E0,-1.777867198E0,8.566437047E0
1.930232676E0,-4.400400639E0,-7.140182972E0,-1.730010748E0,8.563800315E0
1.932637520E0,-4.426722050E0,-7.130611420E0,-1.691725612E0,8.561741813E0
1.935042312E0,-4.433900356E0,-7.121040344E0,-1.631905079E0,8.545864622E0
1.937447208E0,-4.462614059E0,-7.109076023E0,-1.586441398E0,8.542287893E0
1.939852051E0,-4.493721008E0,-7.101897717E0,-1.526620865E0,8.541724120E0
1.942256895E0,-4.524827480E0,-7.080362320E0,-1.473978758E0,8.531014458E0
1.944661739E0,-4.551148891E0,-7.077969551E0,-1.406979680E0,8.531717355E0
1.947066583E0,-4.603790760E0,-7.056434155E0,-1.351944804E0,8.533223722E0
1.949471426E0,-4.646861553E0,-7.049255371E0,-1.296909928E0,8.542089846E0
1.951876270E0,-4.689932346E0,-7.046862602E0,-1.244267821E0,8.555813249E0
1.954281114E0,-4.733003139E0,-7.015756130E0,-1.186840057E0,8.545802602E0
1.956685958E0,-4.776073933E0,-7.013363361E0,-1.136590719E0,8.560957091E0
1.959090801E0,-4.795216560E0,-6.996613503E0,-1.095912814E0,8.552644460E0
1.961495645E0,-4.843072891E0,-6.994220734E0,-1.048056364E0,8.571633499E0
1.963900489E0,-4.862215519E0,-7.020541668E0,-1.002592683E0,8.598507844E0
1.966305333E0,-4.878965378E0,-7.037291527E0,-9.762716293E-1,8.618635709E0
1.968710176E0,-4.910071850E0,-7.044469833E0,-9.355936646E-1,8.637632564E0
1.971115020E0,-4.924428940E0,-7.085147858E0,-9.020941257E-1,8.675430500E0
1.973519864E0,-4.929214478E0,-7.125825882E0,-8.877372146E-1,8.709915455E0
1.975924708E0,-4.957928658E0,-7.207181931E0,-8.853443861E-1,8.792517423E0
1.978329551E0,-4.969892502E0,-7.290930748E0,-8.829515576E-1,8.867756543E0
1.980734395E0,-4.974678040E0,-7.384250641E0,-8.901300430E-1,8.948011545E0
1.983139239E0,-4.965106964E0,-7.475177765E0,-9.044869542E-1,9.019349557E0
1.985544083E0,-4.948357105E0,-7.570890903E0,-9.308080077E-1,9.092361116E0
1.987948926E0,-4.917250633E0,-7.664210796E0,-9.523434043E-1,9.155677959E0
1.990353770E0,-4.876572609E0,-7.752745152E0,-9.643075466E-1,9.209555192E0
1.992758614E0,-4.859822750E0,-7.838887215E0,-9.762716293E-1,9.274650194E0
1.995163458E0,-4.838287354E0,-7.920242786E0,-1.012163997E0,9.336152648E0
1.997568301E0,-4.800002098E0,-7.972885132E0,-1.043270707E0,9.364578540E0
1.999973145E0,-4.778466702E0,-8.044670105E0,-1.067198873E0,9.417503626E0
2.002377989E0,-4.778466702E0,-8.118846893E0,-1.100698471E0,9.484774959E0
2.004782833E0,-4.759324074E0,-8.197810173E0,-1.138983607E0,9.547383984E0
2.007187676E0,-4.733003139E0,-8.262416840E0,-1.191625714E0,9.596292127E0
2.009592520E0,-4.716253281E0,-8.327022552E0,-1.232303619E0,9.648881894E0
2.011997364E0,-4.704289436E0,-8.389236450E0,-1.284945726E0,9.703644307E0
2.014402208E0,-4.713860512E0,-8.470592499E0,-1.318445325E0,9.783134277E0
2.016807051E0,-4.706682205E0,-8.537590981E0,-1.368694544E0,9.844625025E0
2.019211895E0,-4.711467743E0,-8.599804878E0,-1.409372568E0,9.906609070E0
2.021616739E0,-4.740181446E0,-8.662017822E0,-1.457229018E0,9.981151702E0
2.024021583E0,-4.754538536E0,-8.738588333E0,-1.495514154E0,1.006007581E1
2.026426426E0,-4.785645485E0,-8.791230202E0,-1.555334687E0,1.012952107E1
2.028831270E0,-4.831109047E0,-8.851051331E0,-1.598405480E0,1.020958493E1
2.031236114E0,-4.857429981E0,-8.901300430E0,-1.646261930E0,1.027316668E1
2.033640958E0,-4.890929699E0,-8.968298912E0,-1.686939955E0,1.035361507E1
2.036045801E0,-4.945964336E0,-9.028120041E0,-1.727617979E0,1.043811183E1
2.038450645E0,-4.996213913E0,-9.078369141E0,-1.780260086E0,1.051419354E1
2.040855489E0,-5.060820103E0,-9.150154114E0,-1.816152334E0,1.061299344E1
2.043260333E0,-5.099104881E0,-9.224330902E0,-1.861616015E0,1.070302599E1
2.045665176E0,-5.154139996E0,-9.286544800E0,-1.885544300E0,1.078704550E1
2.048070020E0,-5.225924492E0,-9.346364975E0,-1.923829436E0,1.087961142E1
2.050474864E0,-5.276174068E0,-9.387042999E0,-1.940579176E0,1.094168344E1
2.052879760E0,-5.319244862E0,-9.427721024E0,-1.950150490E0,1.099906253E1
2.055284603E0,-5.369493961E0,-9.466006279E0,-1.950150490E0,1.105621215E1
2.057689447E0,-5.400600910E0,-9.466006279E0,-1.957328916E0,1.107261945E1
2.060094291E0,-5.438885689E0,-9.456435204E0,-1.938186288E0,1.107981094E1
2.062499083E0,-5.486742496E0,-9.463613510E0,-1.933400750E0,1.110866159E1
2.064903978E0,-5.539384365E0,-9.473184586E0,-1.919043779E0,1.114040997E1
2.067308822E0,-5.560919762E0,-9.468399048E0,-1.897508383E0,1.114338132E1
2.069713666E0,-5.577669621E0,-9.454042435E0,-1.880758643E0,1.113672168E1
2.072118510E0,-5.584847927E0,-9.425328255E0,-1.849651933E0,1.111074036E1
2.074523353E0,-5.599205017E0,-9.410971642E0,-1.820937991E0,1.110104947E1
2.076928197E0,-5.608776093E0,-9.384650230E0,-1.775474429E0,1.107620597E1
2.079333041E0,-5.637490273E0,-9.363115311E0,-1.753939033E0,1.106912494E1
2.081737885E0,-5.639883041E0,-9.300901413E0,-1.730010748E0,1.101399042E1
2.084142728E0,-5.642275810E0,-9.276973724E0,-1.696511269E0,1.098979837E1
2.086547572E0,-5.627918720E0,-9.231510162E0,-1.670190215E0,1.094000843E1
2.088952416E0,-5.635097504E0,-9.193224907E0,-1.636690736E0,1.090634974E1
2.091357260E0,-5.675775528E0,-9.147761345E0,-1.615155339E0,1.088598605E1
2.093762103E0,-5.704489231E0,-9.104690552E0,-1.596012712E0,1.086203683E1
2.096166947E0,-5.735595703E0,-9.073583603E0,-1.567298889E0,1.084819816E1
2.098571791E0,-5.788238049E0,-9.064012527E0,-1.540977836E0,1.086437460E1
2.100976635E0,-5.867201328E0,-9.073583603E0,-1.521835208E0,1.091191794E1
2.103381478E0,-5.955735683E0,-9.087940216E0,-1.519442320E0,1.097133309E1
2.105786322E0,-6.077769279E0,-9.142974854E0,-1.514656782E0,1.108275479E1
2.108191166E0,-6.209374905E0,-9.190832138E0,-1.502692580E0,1.119311472E1
2.110596010E0,-6.336194515E0,-9.276973724E0,-1.514656782E0,1.133595111E1
2.113000853E0,-6.479763508E0,-9.363115311E0,-1.521835208E0,1.148787386E1
2.115405697E0,-6.613761902E0,-9.480362892E0,-1.569691658E0,1.166546437E1
2.117810541E0,-6.723831654E0,-9.583254814E0,-1.598405480E0,1.181539610E1
2.120215385E0,-6.841079712E0,-9.707681656E0,-1.639083505E0,1.198857996E1
2.122620228E0,-6.920042992E0,-9.851250648E0,-1.663011789E0,1.215317829E1
2.125025072E0,-6.982256413E0,-9.975677490E0,-1.691725612E0,1.229341212E1
2.127429916E0,-7.018148899E0,-1.011924744E1,-1.737189293E0,1.243669608E1
2.129834760E0,-7.018148899E0,-1.024606609E1,-1.775474429E0,1.254546108E1
2.132239603E0,-7.001399040E0,-1.036331463E1,-1.813759565E0,1.263754732E1
2.134644447E0,-6.943971157E0,-1.047817039E1,-1.868794441E0,1.270839026E1
2.137049343E0,-6.853044033E0,-1.056191921E1,-1.909472466E0,1.273438004E1
2.139454187E0,-6.771687984E0,-1.066241741E1,-1.935793519E0,1.277850538E1
2.141859030E0,-6.659225464E0,-1.073659515E1,-1.942971945E0,1.278260143E1
2.144263874E0,-6.565905571E0,-1.081077290E1,-1.950150490E0,1.279793005E1
2.146668718E0,-6.498906136E0,-1.088734341E1,-1.962114573E0,1.283042949E1
2.149073562E0,-6.403193474E0,-1.094716358E1,-1.959721804E0,1.283284016E1
2.151478405E0,-6.312266350E0,-1.103569794E1,-1.962114573E0,1.286395075E1
2.153883249E0,-6.233303070E0,-1.112662506E1,-1.945364833E0,1.290117424E1
2.156288093E0,-6.147161484E0,-1.119362450E1,-1.935793519E0,1.291635089E1
2.158692937E0,-6.068198204E0,-1.127737331E1,-1.923829436E0,1.295003081E1
2.161097780E0,-5.955735683E0,-1.133480072E1,-1.904686809E0,1.294512753E1
2.163502624E0,-5.860022545E0,-1.139222908E1,-1.899901152E0,1.295115331E1
2.165907468E0,-5.785845280E0,-1.144247818E1,-1.887937069E0,1.296034795E1
2.168312312E0,-5.699703693E0,-1.146162033E1,-1.875972986E0,1.293733502E1
2.170717155E0,-5.606383324E0,-1.145922756E1,-1.859223247E0,1.289194095E1
2.173121999E0,-5.546562672E0,-1.142094231E1,-1.854437590E0,1.283125946E1
2.175526843E0,-5.498706341E0,-1.138504982E1,-1.830509305E0,1.277520627E1
2.177931687E0,-5.455635548E0,-1.135394382E1,-1.804188251E0,1.272521492E1
2.180336530E0,-5.407779217E0,-1.128455162E1,-1.775474429E0,1.263872979E1
2.182741374E0,-5.405386448E0,-1.118166065E1,-1.727617979E0,1.253923449E1
2.185146218E0,-5.410171986E0,-1.110509014E1,-1.696511269E0,1.246880662E1
2.187551062E0,-5.438885689E0,-1.099501991E1,-1.672582984E0,1.238020494E1
2.189955905E0,-5.462814331E0,-1.085862923E1,-1.631905079E0,1.226439086E1
2.192360749E0,-5.529813290E0,-1.073420238E1,-1.591227055E0,1.217924215E1
2.194765593E0,-5.613562107E0,-1.057866859E1,-1.576870084E0,1.207918987E1
2.197170437E0,-5.699703693E0,-1.042313576E1,-1.540977836E0,1.197927351E1
2.199575280E0,-5.781059742E0,-1.026999474E1,-1.526620865E0,1.188377107E1
2.201980124E0,-5.864808083E0,-1.011446095E1,-1.497906923E0,1.178736693E1
2.204384968E0,-5.970092297E0,-9.946963310E0,-1.469193101E0,1.169369956E1
2.206789812E0,-6.044270039E0,-9.777072906E0,-1.433300734E0,1.158355325E1
2.209194655E0,-6.113661766E0,-9.604789734E0,-1.375872970E0,1.146829859E1
2.211599499E0,-6.178267956E0,-9.432506561E0,-1.332802176E0,1.135427394E1
2.214004395E0,-6.230910301E0,-9.260223389E0,-1.306481123E0,1.123756528E1
2.216409187E0,-6.293123722E0,-9.092725754E0,-1.282552958E0,1.113220598E1
2.218814083E0,-6.338587284E0,-8.920442581E0,-1.253839016E0,1.101472182E1
2.221218874E0,-6.419943333E0,-8.774480820E0,-1.220339537E0,1.094058566E1
2.223623770E0,-6.496513367E0,-8.628518105E0,-1.179661512E0,1.086497178E1
2.226028614E0,-6.592226505E0,-8.480163574E0,-1.131805062E0,1.080053736E1
2.228433458E0,-6.697510719E0,-8.370093346E0,-1.091127157E0,1.077523415E1
2.230838301E0,-6.819544315E0,-8.245666504E0,-1.055234790E0,1.075224261E1
2.233243145E0,-6.929614544E0,-8.159524918E0,-1.019342422E0,1.075343962E1
2.235647989E0,-7.030112743E0,-8.092526436E0,-9.954141974E-1,1.076579392E1
2.238052833E0,-7.101897717E0,-8.020741463E0,-9.619147182E-1,1.075613893E1
2.240457676E0,-7.156932354E0,-7.987242222E0,-9.355936646E-1,1.076536365E1
2.242862520E0,-7.219145775E0,-7.941778183E0,-9.140582681E-1,1.077141629E1
2.245267364E0,-7.276573658E0,-7.896314621E0,-8.949156404E-1,1.077502588E1
2.247672208E0,-7.310073376E0,-7.855636597E0,-8.709874153E-1,1.076600289E1
2.250077051E0,-7.341179848E0,-7.843672752E0,-8.614161611E-1,1.077766958E1
2.252481895E0,-7.355536938E0,-7.829315662E0,-8.590233326E-1,1.077682831E1
2.254886739E0,-7.345965385E0,-7.810173035E0,-8.542376757E-1,1.075600912E1
2.257291583E0,-7.331608772E0,-7.822137356E0,-8.542376757E-1,1.075490781E1
2.259696426E0,-7.317251682E0,-7.822137356E0,-8.446664214E-1,1.074436905E1
2.262101270E0,-7.259823799E0,-7.836493969E0,-8.614161611E-1,1.071716927E1
2.264506114E0,-7.178467751E0,-7.838887215E0,-8.733802438E-1,1.066495875E1
2.266910958E0,-7.092326164E0,-7.855636597E0,-8.973084688E-1,1.062154787E1
2.269315801E0,-7.001399040E0,-7.886743546E0,-9.308080077E-1,1.058710139E1
2.271720645E0,-6.872186661E0,-7.908278942E0,-9.643075466E-1,1.052129813E1
2.274125489E0,-6.735795975E0,-7.920242786E0,-9.978070259E-1,1.044494194E1
2.276530333E0,-6.592226505E0,-7.929814339E0,-1.038485050E0,1.036425863E1
2.278935176E0,-6.455835342E0,-7.956135273E0,-1.076770186E0,1.030229744E1
2.281340020E0,-6.293123722E0,-7.980063438E0,-1.138983607E0,1.022653912E1
2.283744864E0,-6.132804394E0,-7.989634991E0,-1.194018483E0,1.014254589E1
2.286149760E0,-5.977271080E0,-8.013563156E0,-1.237089276E0,1.007349760E1
2.288554603E0,-5.816951752E0,-8.044670105E0,-1.292124271E0,1.001115527E1
2.290959447E0,-5.699703693E0,-8.061419487E0,-1.356730461E0,9.965632137E0
2.293364291E0,-5.580062389E0,-8.066205025E0,-1.406979680E0,9.908599880E0
2.295769135E0,-5.469992638E0,-8.092526436E0,-1.459621787E0,9.876249254E0
2.298173978E0,-5.347958565E0,-8.116454124E0,-1.493121386E0,9.833966638E0
2.300578822E0,-5.201996326E0,-8.137989998E0,-1.529013634E0,9.778830691E0
2.302983666E0,-5.084748268E0,-8.166703224E0,-1.533799291E0,9.741778419E0
2.305388510E0,-5.003392220E0,-8.214560509E0,-1.564906001E0,9.744838062E0
2.307793353E0,-4.922036171E0,-8.245666504E0,-1.600798368E0,9.735502636E0
2.310198197E0,-4.835894585E0,-8.264809608E0,-1.655833244E0,9.717753754E0
2.312603041E0,-4.752145767E0,-8.283951759E0,-1.686939955E0,9.698067465E0
2.315007885E0,-4.685146809E0,-8.312665939E0,-1.708475351E0,9.693807491E0
2.317412728E0,-4.618147850E0,-8.362915039E0,-1.727617979E0,9.708259442E0
2.319817572E0,-4.529613495E0,-8.396414757E0,-1.741974831E0,9.698023278E0
2.322222416E0,-4.438685894E0,-8.432307243E0,-1.761117458E0,9.690576485E0
2.324627260E0,-4.364508629E0,-8.451449394E0,-1.768295884E0,9.674854147E0
2.327032103E0,-4.271188259E0,-8.480163574E0,-1.765903115E0,9.657879540E0
2.329436947E0,-4.218546391E0,-8.489734650E0,-1.763510346E0,9.642701738E0
2.331841791E0,-4.134797573E0,-8.506484032E0,-1.737189293E0,9.616373963E0
2.334246635E0,-4.053441525E0,-8.487341881E0,-1.710868239E0,9.559938835E0
2.336651478E0,-3.984049797E0,-8.480163574E0,-1.686939955E0,9.520062681E0
2.339056322E0,-3.919443607E0,-8.494520187E0,-1.641476393E0,9.498071181E0
2.341461166E0,-3.840480328E0,-8.504091263E0,-1.603191137E0,9.467791674E0
2.343866010E0,-3.802195072E0,-8.532805443E0,-1.560120344E0,9.470978386E0
2.346270853E0,-3.751945972E0,-8.559126854E0,-1.507478237E0,9.466162988E0
2.348675749E0,-3.713660717E0,-8.571090698E0,-1.459621787E0,9.454383504E0
2.351080541E0,-3.670589924E0,-8.583054543E0,-1.399801254E0,9.439359047E0
2.353485437E0,-3.622733593E0,-8.575876236E0,-1.347159147E0,9.406630091E0
2.355890280E0,-3.608376503E0,-8.561519623E0,-1.299302697E0,9.381267864E0
2.358295124E0,-3.562912941E0,-8.535198212E0,-1.246660590E0,9.332637342E0
2.360699968E0,-3.515056372E0,-8.528019905E0,-1.196411371E0,9.301298026E0
2.363104812E0,-3.488735437E0,-8.513663292E0,-1.155733347E0,9.273050047E0
2.365509655E0,-3.479164124E0,-8.499305725E0,-1.107876897E0,9.250414695E0
2.367914499E0,-3.457628727E0,-8.472985268E0,-1.057627559E0,9.212233812E0
2.370319343E0,-3.445664644E0,-8.461020470E0,-1.007378340E0,9.191098049E0
2.372724187E0,-3.414557934E0,-8.432307243E0,-9.571290612E-1,9.147628511E0
2.375129030E0,-3.412165165E0,-8.389236450E0,-9.116654396E-1,9.102378437E0
2.377533874E0,-3.381058455E0,-8.343772888E0,-8.733802438E-1,9.045048111E0
2.379938718E0,-3.342773199E0,-8.303094864E0,-8.135597110E-1,8.987624624E0
2.382343562E0,-3.342773199E0,-8.228917122E0,-7.680960894E-1,8.915109717E0
2.384748405E0,-3.323630571E0,-8.145168304E0,-7.250252366E-1,8.827001103E0
2.387153249E0,-3.316452265E0,-8.061419487E0,-6.867401004E-1,8.743966590E0
2.389558093E0,-3.318845034E0,-7.980063438E0,-6.484549642E-1,8.666985559E0
2.391962937E0,-3.326023579E0,-7.908278942E0,-6.029912829E-1,8.600401570E0
2.394367780E0,-3.330809116E0,-7.834101200E0,-5.886343718E-1,8.533107371E0
2.396772624E0,-3.349951744E0,-7.755138397E0,-5.718846321E-1,8.467077434E0
2.399177468E0,-3.376272678E0,-7.661818027E0,-5.575276613E-1,8.391275814E0
2.401582312E0,-3.385843992E0,-7.578069210E0,-5.575276613E-1,8.318768514E0
2.403987155E0,-3.431307554E0,-7.525427341E0,-5.335994363E-1,8.287982659E0
2.406391999E0,-3.491128206E0,-7.463213921E0,-5.312066078E-1,8.256495542E0
2.408796843E0,-3.541377544E0,-7.398607731E0,-5.240281820E-1,8.219206580E0
2.411201739E0,-3.594019651E0,-7.372286797E0,-5.240281820E-1,8.218405892E0
2.413606583E0,-3.670589924E0,-7.331608772E0,-5.312066078E-1,8.216319008E0
2.416011426E0,-3.728017569E0,-7.283751965E0,-5.335994363E-1,8.199749144E0
2.418416270E0,-3.783052683E0,-7.264609337E0,-5.479564071E-1,8.208915436E0
2.420821114E0,-3.847658873E0,-7.228717327E0,-5.551348329E-1,8.207740717E0
2.423225958E0,-3.900300980E0,-7.216753006E0,-5.766702294E-1,8.223528454E0
2.425630801E0,-3.943371773E0,-7.183253765E0,-6.077769399E-1,8.216976841E0
2.428035645E0,-3.993621111E0,-7.161718369E0,-6.460621357E-1,8.225364177E0
2.430440489E0,-4.010370731E0,-7.133004189E0,-6.747759581E-1,8.210855300E0
2.432845333E0,-4.034298897E0,-7.113861561E0,-7.058826685E-1,8.208584789E0
2.435250176E0,-4.063013077E0,-7.070790768E0,-7.561319470E-1,8.189987354E0
2.437655020E0,-4.072584152E0,-7.049255371E0,-7.872386575E-1,8.179100664E0
2.440059864E0,-4.086941242E0,-7.037291527E0,-8.207381964E-1,8.179252529E0
2.442464708E0,-4.106083870E0,-7.032505512E0,-8.590233326E-1,8.188649438E0
2.444869551E0,-4.110869408E0,-7.010970116E0,-9.020941257E-1,8.177207534E0
2.447274395E0,-4.125226021E0,-7.003791809E0,-9.164510965E-1,8.179882153E0
2.449679239E0,-4.141975880E0,-6.996613503E0,-9.714859724E-1,8.188549913E0
2.452084083E0,-4.141975880E0,-6.967899323E0,-1.016949654E0,8.169563743E0
2.454488926E0,-4.132404804E0,-6.967899323E0,-1.076770186E0,8.172381811E0
2.456893822E0,-4.161118507E0,-6.984649181E0,-1.115055323E0,8.206313411E0
2.459298614E0,-4.170690060E0,-6.994220734E0,-1.158126116E0,8.225268102E0
2.461703510E0,-4.177868366E0,-7.013363361E0,-1.213161111E0,8.253096971E0
2.464108353E0,-4.180261135E0,-7.032505512E0,-1.251446247E0,8.276281450E0
2.466513197E0,-4.192225456E0,-7.022934437E0,-1.299302697E0,8.281578948E0
2.468918041E0,-4.194618225E0,-7.037291527E0,-1.342373490E0,8.301822732E0
2.471322885E0,-4.216153622E0,-7.061219692E0,-1.373480201E0,8.338058693E0
2.473727728E0,-4.228117466E0,-7.075576782E0,-1.418943882E0,8.363860702E0
2.476132572E0,-4.220939159E0,-7.099504948E0,-1.442872047E0,8.384579753E0
2.478537416E0,-4.201796532E0,-7.130611420E0,-1.466800332E0,8.405487287E0
2.480942260E0,-4.194618225E0,-7.149754047E0,-1.497906923E0,8.423629274E0
2.483347103E0,-4.182653904E0,-7.192824841E0,-1.536192179E0,8.461158861E0
2.485751947E0,-4.206582069E0,-7.216753006E0,-1.572084427E0,8.499900358E0
2.488156791E0,-4.194618225E0,-7.247859955E0,-1.593619823E0,8.524430780E0
2.490561635E0,-4.185046673E0,-7.276573658E0,-1.617548108E0,8.548660815E0
2.492966478E0,-4.185046673E0,-7.305287361E0,-1.631905079E0,8.575835427E0
2.495371322E0,-4.182653904E0,-7.334001541E0,-1.636690736E0,8.600054003E0
2.497776166E0,-4.182653904E0,-7.372286797E0,-1.658226132E0,8.636835080E0
2.500181010E0,-4.182653904E0,-7.415357590E0,-1.689332843E0,8.679629446E0
2.502585853E0,-4.175475597E0,-7.432106972E0,-1.691725612E0,8.690957718E0
2.504990697E0,-4.165904045E0,-7.463213921E0,-1.696511269E0,8.713923859E0
2.507395541E0,-4.165904045E0,-7.503891945E0,-1.720439434E0,8.753460040E0
2.509800385E0,-4.156332970E0,-7.532605648E0,-1.720439434E0,8.773549079E0
2.512205280E0,-4.134797573E0,-7.556533813E0,-1.734796405E0,8.786766915E0
2.514610124E0,-4.118047714E0,-7.604390144E0,-1.739582062E0,8.821066386E0
2.517014968E0,-4.103690624E0,-7.652246952E0,-1.741974831E0,8.856163756E0
2.519419812E0,-4.074976921E0,-7.697710514E0,-1.749153376E0,8.883677256E0
2.521824655E0,-4.058227062E0,-7.726424217E0,-1.753939033E0,8.901861614E0
2.524229499E0,-4.031906128E0,-7.757531166E0,-1.741974831E0,8.914596633E0
2.526634343E0,-4.012763500E0,-7.781459332E0,-1.732403636E0,8.924942722E0
2.529039187E0,-3.991228104E0,-7.800601959E0,-1.708475351E0,8.927383756E0
2.531444030E0,-3.996013880E0,-7.814958572E0,-1.665404558E0,8.933939599E0
2.533848874E0,-3.991228104E0,-7.841279984E0,-1.634297848E0,8.949106269E0
2.536253718E0,-3.993621111E0,-7.850851059E0,-1.612762451E0,8.954656590E0
2.538658562E0,-4.024727821E0,-7.869993687E0,-1.586441398E0,8.980647581E0
2.541063405E0,-4.024727821E0,-7.891529083E0,-1.557727575E0,8.994508353E0
2.543468249E0,-4.034298897E0,-7.929814339E0,-1.533799291E0,9.028292380E0
2.545873093E0,-4.058227062E0,-7.953742504E0,-1.488335729E0,9.052423430E0
2.548277937E0,-4.072584152E0,-7.963313580E0,-1.440479279E0,9.059541125E0
2.550682780E0,-4.082155228E0,-7.984848976E0,-1.392622828E0,9.075307313E0
2.553087624E0,-4.084548473E0,-8.006384850E0,-1.339980721E0,9.087424438E0
2.555492520E0,-4.103690624E0,-8.027919769E0,-1.299302697E0,9.109114121E0
2.557897312E0,-4.101297855E0,-8.049455643E0,-1.237089276E0,9.118375410E0
2.560302208E0,-4.118047714E0,-8.042277336E0,-1.177268744E0,9.111668531E0
2.562707051E0,-4.110869408E0,-8.075776100E0,-1.119840980E0,9.130796829E0
2.565111895E0,-4.115654945E0,-8.092526436E0,-1.071984529E0,9.142032081E0
2.567516739E0,-4.130012035E0,-8.090133667E0,-1.021735311E0,9.140634836E0
2.569921583E0,-4.146761417E0,-8.068597794E0,-9.690931439E-1,9.123433681E0
2.572326426E0,-4.170690060E0,-8.051848412E0,-9.116654396E-1,9.113619056E0
2.574731270E0,-4.189832687E0,-8.049455643E0,-8.446664214E-1,9.113829901E0
2.577136114E0,-4.206582069E0,-8.039883614E0,-8.039883971E-1,9.109415929E0
2.579540958E0,-4.206582069E0,-8.032705307E0,-7.537391186E-1,9.098780683E0
2.581945801E0,-4.230510235E0,-8.011170387E0,-7.058826685E-1,9.087042322E0
2.584350645E0,-4.244867325E0,-8.008777618E0,-6.436693072E-1,9.087008734E0
2.586755489E0,-4.264009953E0,-7.996813297E0,-6.005984545E-1,9.082484368E0
2.589160333E0,-4.254438877E0,-7.989634991E0,-5.527420044E-1,9.068629509E0
2.591565176E0,-4.275974274E0,-7.987242222E0,-5.383850932E-1,9.075783867E0
2.593970020E0,-4.278367043E0,-8.001599312E0,-5.072783828E-1,9.087758109E0
2.596374864E0,-4.280759811E0,-8.006384850E0,-4.474578202E-1,9.089957174E0
2.598779708E0,-4.297509670E0,-7.982456207E0,-4.115654826E-1,9.075107857E0
2.601184551E0,-4.287938118E0,-8.001599312E0,-3.972085714E-1,9.086791485E0
2.603589447E0,-4.268795490E0,-7.972885132E0,-3.565305769E-1,9.050780426E0
2.605994291E0,-4.268795490E0,-7.960920811E0,-3.373879790E-1,9.039508047E0
2.608399135E0,-4.242474556E0,-7.963313580E0,-3.206382394E-1,9.028607999E0
2.610803978E0,-4.225724697E0,-7.944170952E0,-3.254238665E-1,9.004026989E0
2.613208822E0,-4.208974838E0,-7.939385414E0,-3.038884699E-1,8.991198927E0
2.615613666E0,-4.206582069E0,-7.932207108E0,-3.134597540E-1,8.984069196E0
2.618018510E0,-4.206582069E0,-7.944170952E0,-3.110669553E-1,8.994550988E0
2.620423353E0,-4.204189301E0,-7.948956966E0,-2.943171859E-1,8.997096595E0
2.622828197E0,-4.204189301E0,-7.953742504E0,-2.919243574E-1,9.001246987E0
2.625233041E0,-4.201796532E0,-7.975277901E0,-3.086741269E-1,9.019724575E0
2.627637885E0,-4.211368084E0,-7.972885132E0,-3.038884699E-1,9.021910367E0
2.630042728E0,-4.220939159E0,-7.980063438E0,-3.014956415E-1,9.032642996E0
2.632447572E0,-4.247260094E0,-8.013563156E0,-2.991028428E-1,9.074462809E0
2.634852416E0,-4.273581028E0,-8.039883614E0,-3.326023519E-1,9.111193536E0
2.637257260E0,-4.304687977E0,-8.056633949E0,-3.278166950E-1,9.140413172E0
2.639662103E0,-4.326223373E0,-8.092526436E0,-3.517449200E-1,9.183077767E0
2.642066947E0,-4.357329845E0,-8.116454124E0,-3.876372576E-1,9.220271882E0
2.644471791E0,-4.421936035E0,-8.161917686E0,-4.259224236E-1,9.292568457E0
2.646876687E0,-4.474578381E0,-8.202595711E0,-4.737788737E-1,9.355687815E0
2.649281530E0,-4.498506546E0,-8.248059273E0,-5.096712112E-1,9.408868564E0
2.651686374E0,-4.567898273E0,-8.298309326E0,-5.623133183E-1,9.489142668E0
2.654091218E0,-4.625326157E0,-8.370093346E0,-6.197410822E-1,9.583119726E0
2.656496062E0,-4.687539577E0,-8.425128937E0,-6.795616150E-1,9.665279555E0
2.658900905E0,-4.737788677E0,-8.489734650E0,-7.657032609E-1,9.752360609E0
2.661305749E0,-4.802394867E0,-8.547162056E0,-8.398807645E-1,9.839836145E0
2.663710593E0,-4.859822750E0,-8.626125336E0,-9.164510965E-1,9.943228755E0
2.666115437E0,-4.900500774E0,-8.683553696E0,-1.002592683E0,1.002118779E1
2.668520280E0,-4.912465096E0,-8.769695282E0,-1.079162955E0,1.010962222E1
2.670925124E0,-4.929214478E0,-8.839086533E0,-1.148554921E0,1.018556746E1
2.673329968E0,-4.922036171E0,-8.894122124E0,-1.225125194E0,1.023878802E1
2.675734812E0,-4.919643402E0,-8.958727837E0,-1.294517040E0,1.030230411E1
2.678139655E0,-4.893322468E0,-9.013762474E0,-1.361516118E0,1.034631552E1
2.680544499E0,-4.876572609E0,-9.054440498E0,-1.411765337E0,1.038060376E1
2.682949343E0,-4.850251675E0,-9.126225471E0,-1.457229018E0,1.043726253E1
2.685354187E0,-4.816751957E0,-9.198010445E0,-1.507478237E0,1.049175801E1
2.687759030E0,-4.792823792E0,-9.238688469E0,-1.536192179E0,1.052066590E1
2.690163926E0,-4.785645485E0,-9.300901413E0,-1.576870084E0,1.057807587E1
2.692568770E0,-4.756931305E0,-9.372686386E0,-1.593619823E0,1.063086401E1
2.694973614E0,-4.728217602E0,-9.413364410E0,-1.617548108E0,1.065757632E1
2.697378458E0,-4.692325115E0,-9.454042435E0,-1.636690736E0,1.068061749E1
2.699783301E0,-4.680361271E0,-9.489934921E0,-1.636690736E0,1.070716596E1
2.702188145E0,-4.649254322E0,-9.513862610E0,-1.634297848E0,1.071447978E1
2.704592989E0,-4.625326157E0,-9.568898201E0,-1.607976794E0,1.074909504E1
2.706997833E0,-4.630111694E0,-9.580862045E0,-1.588834286E0,1.075896121E1
2.709402676E0,-4.618147850E0,-9.592825890E0,-1.557727575E0,1.075993092E1
2.711807520E0,-4.625326157E0,-9.616754532E0,-1.536192179E0,1.078125671E1
2.714212364E0,-4.618147850E0,-9.626325607E0,-1.545763373E0,1.078808689E1
2.716617208E0,-4.654039860E0,-9.640682220E0,-1.521835208E0,1.081290077E1
2.719022051E0,-4.668396950E0,-9.652647018E0,-1.473978758E0,1.082312977E1
2.721426895E0,-4.699503899E0,-9.645467758E0,-1.438086390E0,1.082536270E1
2.723831739E0,-4.721039295E0,-9.635896683E0,-1.387837172E0,1.081964921E1
2.726236583E0,-4.733003139E0,-9.626325607E0,-1.349551916E0,1.081151025E1
2.728641426E0,-4.761716843E0,-9.597611427E0,-1.306481123E0,1.079328427E1
2.731046322E0,-4.807180882E0,-9.595218658E0,-1.249053478E0,1.080450571E1
2.733451166E0,-4.874179840E0,-9.580862045E0,-1.210768223E0,1.081741681E1
2.735856010E0,-4.934000492E0,-9.583254814E0,-1.165304661E0,1.084163588E1
2.738260853E0,-5.008177757E0,-9.583254814E0,-1.136590719E0,1.087255516E1
2.740665697E0,-5.099104881E0,-9.578469276E0,-1.103091240E0,1.090709652E1
2.743070541E0,-5.233103275E0,-9.600004196E0,-1.060020447E0,1.098494851E1
2.745475385E0,-5.371886730E0,-9.645467758E0,-1.062413216E0,1.109148039E1
2.747880228E0,-5.503491879E0,-9.726823807E0,-1.095912814E0,1.122945008E1
2.750285072E0,-5.663811207E0,-9.860821724E0,-1.127019525E0,1.142736783E1
2.752689916E0,-5.814558983E0,-9.999606133E0,-1.194018483E0,1.162871012E1
2.755094760E0,-5.979663849E0,-1.016471100E1,-1.272981644E0,1.186162770E1
2.757499603E0,-6.120840549E0,-1.033938694E1,-1.347159147E0,1.209059341E1
2.759904447E0,-6.273981094E0,-1.054038334E1,-1.442872047E0,1.235088659E1
2.762309291E0,-6.384050846E0,-1.072941685E1,-1.555334687E0,1.258155623E1
2.764714135E0,-6.451049805E0,-1.090170002E1,-1.667797327E0,1.277672316E1
2.767119030E0,-6.491727829E0,-1.108594704E1,-1.782652855E0,1.296991145E1
2.769523874E0,-6.484549522E0,-1.123430252E1,-1.887937069E0,1.310813648E1
2.771928718E0,-6.439085960E0,-1.138504982E1,-1.981257200E0,1.322900478E1
2.774333562E0,-6.374479294E0,-1.149751282E1,-2.055434704E0,1.330607377E1
2.776738405E0,-6.288337708E0,-1.158126163E1,-2.108076811E0,1.334589075E1
2.779143249E0,-6.156732559E0,-1.163868904E1,-2.163111687E0,1.334329384E1
2.781548093E0,-6.022734642E0,-1.166740322E1,-2.194218397E0,1.331225844E1
2.783952937E0,-5.886343479E0,-1.170329571E1,-2.208575249E0,1.328510348E1
2.786357780E0,-5.733202934E0,-1.170090294E1,-2.215753794E0,1.321704620E1
2.788762624E0,-5.587240696E0,-1.167936707E1,-2.206182480E0,1.313362535E1
2.791167468E0,-5.407779217E0,-1.166740322E1,-2.184647083E0,1.304396630E1
2.793572312E0,-5.233103275E0,-1.161715412E1,-2.151147604E0,1.292172882E1
2.795977155E0,-5.065605640E0,-1.156451225E1,-2.120040894E0,1.280206536E1
2.798381999E0,-4.917250633E0,-1.148315620E1,-2.081755638E0,1.266396213E1
2.800786843E0,-4.776073933E0,-1.139462185E1,-2.045863390E0,1.252333208E1
2.803191687E0,-4.670789719E0,-1.126780224E1,-1.988435626E0,1.235854037E1
2.805596583E0,-4.572684288E0,-1.113141060E1,-1.928615093E0,1.218758794E1
2.808001426E0,-4.479363918E0,-1.097827053E1,-1.854437590E0,1.200108594E1
2.810406270E0,-4.417150497E0,-1.082034397E1,-1.751546144E0,1.181773989E1
2.812811114E0,-4.357329845E0,-1.065284634E1,-1.672582984E0,1.163043388E1
2.815215958E0,-4.287938118E0,-1.046381378E1,-1.567298889E0,1.141640215E1
2.817620801E0,-4.266402721E0,-1.027238750E1,-1.464407444E0,1.121911879E1
2.820025645E0,-4.283152580E0,-1.008335495E1,-1.356730461E0,1.103902897E1
2.822430489E0,-4.352544308E0,-9.868000984E0,-1.261017561E0,1.085874075E1
2.824835333E0,-4.421936035E0,-9.676574707E0,-1.160519004E0,1.070216897E1
2.827240176E0,-4.517649174E0,-9.477970123E0,-1.071984529E0,1.055415665E1
2.829645020E0,-4.596612453E0,-9.284152031E0,-9.954141974E-1,1.040745763E1
2.832049864E0,-4.704289436E0,-9.075976372E0,-9.427721500E-1,1.026608521E1
2.834454708E0,-4.828716278E0,-8.889336586E0,-8.997012973E-1,1.015609513E1
2.836859551E0,-4.924428940E0,-8.688339233E0,-8.614161611E-1,1.002393520E1
2.839264395E0,-5.024927616E0,-8.516056061E0,-8.398807645E-1,9.923633814E0
2.841669291E0,-5.087141037E0,-8.305487633E0,-8.183453679E-1,9.773935640E0
2.844074135E0,-5.187639713E0,-8.114061356E0,-7.968099117E-1,9.663565776E0
2.846478978E0,-5.278566837E0,-7.929814339E0,-7.800601721E-1,9.557913851E0
2.848883822E0,-5.343173027E0,-7.724031448E0,-7.465606928E-1,9.421651271E0
2.851288666E0,-5.426921844E0,-7.563712597E0,-7.274180651E-1,9.337578165E0
2.853693510E0,-5.484349728E0,-7.377072334E0,-6.987041831E-1,9.218865207E0
2.856098353E0,-5.560919762E0,-7.209574699E0,-6.795616150E-1,9.130366911E0
2.858503197E0,-5.637490273E0,-7.066005230E0,-6.675975323E-1,9.063962321E0
2.860908041E0,-5.678168297E0,-6.941578388E0,-6.628118753E-1,8.992576122E0
2.863312885E0,-5.740381718E0,-6.809973240E0,-6.580262184E-1,8.930885527E0
2.865717728E0,-5.776273727E0,-6.707081795E0,-6.269195080E-1,8.873742866E0
2.868122572E0,-5.840879917E0,-6.613761902E0,-6.173482537E-1,8.845272385E0
2.870527416E0,-5.891129494E0,-6.551548481E0,-6.269195080E-1,8.832962260E0
2.872932260E0,-5.946164131E0,-6.496513367E0,-6.532405615E-1,8.831097159E0
2.875337103E0,-5.982056618E0,-6.482156754E0,-6.843472719E-1,8.847128842E0
2.877741999E0,-6.049055576E0,-6.460621357E0,-7.274180651E-1,8.880306229E0
2.880146843E0,-6.099305153E0,-6.451049805E0,-7.776673436E-1,8.911920861E0
2.882551687E0,-6.142375946E0,-6.470192432E0,-8.398807645E-1,8.960891254E0
2.884956530E0,-6.156732559E0,-6.508477688E0,-8.925228715E-1,9.003456819E0
2.887361374E0,-6.168696880E0,-6.541976929E0,-9.619147182E-1,9.042984201E0
2.889766218E0,-6.183053493E0,-6.570691109E0,-1.028913736E0,9.080902798E0
2.892171062E0,-6.168696880E0,-6.640082836E0,-1.110269666E0,9.131057989E0
2.894575905E0,-6.149554253E0,-6.702296257E0,-1.189232826E0,9.173443592E0
2.896980749E0,-6.111268997E0,-6.764509678E0,-1.263410330E0,9.203390984E0
2.899385593E0,-6.068198204E0,-6.843472958E0,-1.351944804E0,9.245750717E0
2.901790437E0,-6.027520180E0,-6.915257454E0,-1.418943882E0,9.282520504E0
2.904195280E0,-5.979663849E0,-6.987041950E0,-1.512263894E0,9.319982674E0
2.906600124E0,-5.912664890E0,-7.066005230E0,-1.603191137E0,9.351911988E0
2.909004968E0,-5.836094379E0,-7.161718369E0,-1.694118381E0,9.392563265E0
2.911409812E0,-5.745167255E0,-7.269395351E0,-1.785045743E0,9.435965445E0
2.913814708E0,-5.663811207E0,-7.348358154E0,-1.861616015E0,9.462702528E0
2.916219551E0,-5.587240696E0,-7.458428383E0,-1.935793519E0,9.518020229E0
2.918624395E0,-5.529813290E0,-7.539783955E0,-1.998006940E0,9.561339280E0
2.921029239E0,-5.479563713E0,-7.635497093E0,-2.065006018E0,9.622405323E0
2.923434083E0,-5.419743061E0,-7.738388538E0,-2.132004976E0,9.685128664E0
2.925838926E0,-5.376672268E0,-7.846065521E0,-2.184647083E0,9.759202412E0
2.928243770E0,-5.324030399E0,-7.939385414E0,-2.234896421E0,9.817021058E0
2.930648614E0,-5.237888813E0,-8.037490845E0,-2.270788670E0,9.858662155E0
2.933053458E0,-5.197210789E0,-8.128418922E0,-2.282752752E0,9.914290408E0
2.935469447E0,-5.149354458E0,-8.207381248E0,-2.306680918E0,9.959805979E0
2.937863145E0,-5.079962254E0,-8.286344528E0,-2.323430777E0,9.993390451E0
2.940267989E0,-5.034498692E0,-8.355736732E0,-2.333002090E0,1.003032463E1
2.942672833E0,-4.979464054E0,-8.420342445E0,-2.335394859E0,1.005740018E1
2.945077676E0,-4.914857864E0,-8.484949112E0,-2.356930256E0,1.008490503E1
2.947482572E0,-4.874179840E0,-8.566305161E0,-2.376072884E0,1.013829056E1
2.949887416E0,-4.828716278E0,-8.616554260E0,-2.356930256E0,1.015463581E1
2.952292260E0,-4.790431023E0,-8.664410591E0,-2.342573404E0,1.017388276E1
2.954697103E0,-4.737788677E0,-8.717052460E0,-2.340180635E0,1.019362990E1
2.957101947E0,-4.689932346E0,-8.752944946E0,-2.344966173E0,1.020335126E1
2.959506791E0,-4.658825874E0,-8.779266357E0,-2.344966173E0,1.021171105E1
2.961911635E0,-4.630111694E0,-8.817551613E0,-2.337787628E0,1.022997565E1
2.964316478E0,-4.608576298E0,-8.822337151E0,-2.335394859E0,1.022382890E1
2.966721322E0,-4.570291042E0,-8.815158844E0,-2.318645239E0,1.019660244E1
2.969126166E0,-4.570291042E0,-8.819944382E0,-2.313859463E0,1.019965317E1
2.971531010E0,-4.532006264E0,-8.829515457E0,-2.287538528E0,1.018490336E1
2.973935853E0,-4.536791801E0,-8.803194046E0,-2.268395901E0,1.015993726E1
2.976340697E0,-4.567898273E0,-8.791230202E0,-2.234896421E0,1.015609103E1
2.978745593E0,-4.572684288E0,-8.779266357E0,-2.206182480E0,1.014160739E1
2.981150385E0,-4.599005222E0,-8.738588333E0,-2.165504456E0,1.010955907E1
2.983555280E0,-4.630111694E0,-8.738588333E0,-2.105684042E0,1.011112089E1
2.985960124E0,-4.658825874E0,-8.729017258E0,-2.041077614E0,1.010279163E1
2.988364968E0,-4.685146809E0,-8.702695847E0,-1.983649969E0,1.008079277E1
2.990769812E0,-4.718646049E0,-8.662017822E0,-1.907079697E0,1.004654798E1
2.993174655E0,-4.733003139E0,-8.621339798E0,-1.825723648E0,1.000310379E1
2.995579499E0,-4.742574692E0,-8.587840080E0,-1.744367719E0,9.964227551E0
2.997984343E0,-4.752145767E0,-8.539983749E0,-1.651047587E0,9.911617929E0
3.000389187E0,-4.766502857E0,-8.492127419E0,-1.557727575E0,9.862164711E0
3.002794030E0,-4.785645485E0,-8.429914474E0,-1.466800332E0,9.803946347E0
3.005198874E0,-4.785645485E0,-8.377271652E0,-1.351944804E0,9.742116700E0
3.007603718E0,-4.792823792E0,-8.312665939E0,-1.258624673E0,9.677588077E0
3.010008614E0,-4.790431023E0,-8.271987915E0,-1.153340459E0,9.628302429E0
3.012413458E0,-4.802394867E0,-8.209774017E0,-1.060020447E0,9.570111244E0
3.014818301E0,-4.802394867E0,-8.135597229E0,-9.786644578E-1,9.497827270E0
3.017223145E0,-4.802394867E0,-8.085348129E0,-9.068797827E-1,9.447660121E0
3.019627989E0,-4.792823792E0,-8.037490845E0,-8.087740541E-1,9.392898086E0
3.022032833E0,-4.778466702E0,-7.984848976E0,-7.274180651E-1,9.333846701E0
3.024437676E0,-4.785645485E0,-7.944170952E0,-6.556333899E-1,9.297424910E0
3.026842520E0,-4.768895626E0,-7.893921852E0,-5.814558864E-1,9.240912219E0
3.029247364E0,-4.776073933E0,-7.853243828E0,-5.192425251E-1,9.206189963E0
3.031652208E0,-4.785645485E0,-7.800601959E0,-4.642075896E-1,9.163366320E0
3.034057051E0,-4.780859470E0,-7.738388538E0,-4.187439680E-1,9.105746590E0
3.036461895E0,-4.790431023E0,-7.716853142E0,-3.804588020E-1,9.090808583E0
3.038866739E0,-4.790431023E0,-7.664210796E0,-3.373879790E-1,9.044456156E0
3.041271583E0,-4.771288395E0,-7.623532772E0,-3.014956415E-1,8.998574581E0
3.043676478E0,-4.788038254E0,-7.578069210E0,-2.656033039E-1,8.967886506E0
3.046081322E0,-4.768895626E0,-7.542177200E0,-2.488535494E-1,8.926854457E0
3.048486166E0,-4.773681164E0,-7.511070251E0,-2.368894368E-1,8.902826786E0
3.050891010E0,-4.754538536E0,-7.458428383E0,-2.368894368E-1,8.848158409E0
3.053295853E0,-4.747360229E0,-7.412964344E0,-2.440679073E-1,8.806193199E0
3.055700697E0,-4.709074974E0,-7.379465103E0,-2.584248483E-1,8.757778013E0
3.058105541E0,-4.680361271E0,-7.355536938E0,-2.823530734E-1,8.722925457E0
3.060510385E0,-4.666004181E0,-7.298109055E0,-3.134597540E-1,8.667886006E0
3.062915228E0,-4.644468784E0,-7.283751965E0,-3.326023519E-1,8.644926680E0
3.065320072E0,-4.620540619E0,-7.250252724E0,-3.637090325E-1,8.605105719E0
3.067724916E0,-4.575077057E0,-7.202396393E0,-4.163511395E-1,8.542785971E0
3.070129760E0,-4.541577339E0,-7.190432072E0,-4.785645306E-1,8.518055066E0
3.072534655E0,-4.527220249E0,-7.176074982E0,-5.264210105E-1,8.501111363E0
3.074939499E0,-4.486542225E0,-7.130611420E0,-5.838487148E-1,8.444854035E0
3.077344343E0,-4.450650215E0,-7.094718933E0,-6.580262184E-1,8.400971526E0
3.079749187E0,-4.419543266E0,-7.085147858E0,-7.250252366E-1,8.381965428E0
3.082154030E0,-4.393222332E0,-7.058826923E0,-7.872386575E-1,8.351477995E0
3.084558874E0,-4.366901398E0,-7.030112743E0,-8.685946465E-1,8.321464394E0
3.086963718E0,-4.335794449E0,-6.989434719E0,-9.379864931E-1,8.278353088E0
3.089368562E0,-4.309473515E0,-6.970292568E0,-9.882357717E-1,8.254280732E0
3.091773405E0,-4.285545349E0,-6.948757172E0,-1.067198873E0,8.233470629E0
3.094178249E0,-4.266402721E0,-6.939185619E0,-1.129412293E0,8.223749836E0
3.096583093E0,-4.266402721E0,-6.936792850E0,-1.203589797E0,8.232248516E0
3.098987937E0,-4.261617184E0,-6.917650223E0,-1.275374413E0,8.224466276E0
3.101392780E0,-4.242474556E0,-6.915257454E0,-1.323230863E0,8.220116540E0
3.103797676E0,-4.230510235E0,-6.908079147E0,-1.371087432E0,8.215756514E0
3.106202520E0,-4.249652863E0,-6.929614544E0,-1.423729420E0,8.252642767E0
3.108607364E0,-4.266402721E0,-6.939185619E0,-1.469193101E0,8.277259064E0
3.111012208E0,-4.271188259E0,-6.927221775E0,-1.524227977E0,8.279657094E0
3.113417051E0,-4.259224415E0,-6.946363926E0,-1.586441398E0,8.301190319E0
3.115821895E0,-4.273581028E0,-6.951149940E0,-1.639083505E0,8.322774479E0
3.118226739E0,-4.283152580E0,-6.958328247E0,-1.698904037E0,8.345657730E0
3.120631583E0,-4.299902439E0,-6.970292568E0,-1.753939033E0,8.375586045E0
3.123036426E0,-4.292723656E0,-6.994220734E0,-1.808973908E0,8.403510377E0
3.125441270E0,-4.311866283E0,-7.008577347E0,-1.856830359E0,8.435648538E0
3.127846114E0,-4.311866283E0,-7.013363361E0,-1.897508383E0,8.448668211E0
3.130250958E0,-4.304687977E0,-7.032505512E0,-1.935793519E0,8.469579028E0
3.132655853E0,-4.290330887E0,-7.068397999E0,-1.981257200E0,8.502621330E0
3.135060697E0,-4.292723656E0,-7.104290485E0,-2.036292076E0,8.546631214E0
3.137465541E0,-4.297509670E0,-7.135396957E0,-2.067398787E0,8.582343319E0
3.139870385E0,-4.280759811E0,-7.156932354E0,-2.098505497E0,8.599436645E0
3.142275228E0,-4.259224415E0,-7.171289444E0,-2.129612207E0,8.608346709E0
3.144680072E0,-4.232903481E0,-7.202396393E0,-2.148754835E0,8.626072862E0
3.147084916E0,-4.204189301E0,-7.240681171E0,-2.182254314E0,8.652450832E0
3.149489760E0,-4.194618225E0,-7.255038261E0,-2.213361025E0,8.667719957E0
3.151894603E0,-4.192225456E0,-7.286144733E0,-2.225325108E0,8.695673130E0
3.154299447E0,-4.185046673E0,-7.336394310E0,-2.249253273E0,8.740505558E0
3.156704291E0,-4.170690060E0,-7.367500782E0,-2.270788670E0,8.765341096E0
3.159109135E0,-4.153940201E0,-7.424928665E0,-2.273181438E0,8.806369214E0
3.161514030E0,-4.146761417E0,-7.463213921E0,-2.275574446E0,8.835917119E0
3.163918874E0,-4.153940201E0,-7.484749317E0,-2.297109842E0,8.863035888E0
3.166323718E0,-4.161118507E0,-7.530212879E0,-2.292324066E0,8.903581463E0
3.168728562E0,-4.156332970E0,-7.551748276E0,-2.299502611E0,8.921419059E0
3.171133405E0,-4.153940201E0,-7.582854748E0,-2.275574446E0,8.940533786E0
3.173538249E0,-4.149154663E0,-7.606783390E0,-2.258824587E0,8.954380295E0
3.175943093E0,-4.161118507E0,-7.609176159E0,-2.218146563E0,8.951795531E0
3.178347937E0,-4.177868366E0,-7.613961697E0,-2.208575249E0,8.961294629E0
3.180752780E0,-4.168296814E0,-7.623532772E0,-2.184647083E0,8.959108948E0
3.183157624E0,-4.180261135E0,-7.613961697E0,-2.155933142E0,8.949583431E0
3.185562468E0,-4.213760853E0,-7.613961697E0,-2.112862349E0,8.955019852E0
3.187967312E0,-4.230510235E0,-7.590033531E0,-2.067398787E0,8.931963031E0
3.190372155E0,-4.261617184E0,-7.575676441E0,-2.031506538E0,8.926324741E0
3.192777051E0,-4.292723656E0,-7.563712597E0,-1.993221283E0,8.922452338E0
3.195181895E0,-4.326223373E0,-7.525427341E0,-1.942971945E0,8.895133800E0
3.197586739E0,-4.364508629E0,-7.508677483E0,-1.892722726E0,8.888845393E0
3.199991583E0,-4.417150497E0,-7.487142086E0,-1.868794441E0,8.891620088E0
3.202396426E0,-4.472185612E0,-7.465606689E0,-1.828116536E0,8.892566416E0
3.204801270E0,-4.517649174E0,-7.460821152E0,-1.806581140E0,8.907117476E0
3.207206114E0,-4.584648132E0,-7.453642368E0,-1.758724689E0,8.925743419E0
3.209610958E0,-4.658825874E0,-7.448856831E0,-1.727617979E0,8.954037664E0
3.212015801E0,-4.709074974E0,-7.446464062E0,-1.679761529E0,8.969214733E0
3.214420645E0,-4.756931305E0,-7.460821152E0,-1.641476393E0,8.999260661E0
3.216825489E0,-4.804787636E0,-7.429714203E0,-1.605584025E0,8.992471152E0
3.219230333E0,-4.850251675E0,-7.432106972E0,-1.591227055E0,9.016271895E0
3.221635228E0,-4.886143684E0,-7.436892986E0,-1.567298889E0,9.035386168E0
3.224040072E0,-4.926821709E0,-7.432106972E0,-1.550549030E0,9.050634701E0
3.226444916E0,-4.967499733E0,-7.405786037E0,-1.529013634E0,9.047629696E0
3.228849760E0,-5.003392220E0,-7.384250641E0,-1.509871125E0,9.046590631E0
3.231254603E0,-5.036891460E0,-7.389036179E0,-1.502692580E0,9.067867237E0
3.233659447E0,-5.056034088E0,-7.403393269E0,-1.488335729E0,9.087841098E0
3.236064291E0,-5.060820103E0,-7.396214962E0,-1.483550072E0,9.083876744E0
3.238469135E0,-5.067998409E0,-7.448856831E0,-1.488335729E0,9.131550755E0
3.240873978E0,-5.065605640E0,-7.482356548E0,-1.478764415E0,9.156023384E0
3.243278822E0,-5.072783947E0,-7.501499176E0,-1.473978758E0,9.174870039E0
3.245683666E0,-5.063212872E0,-7.534998417E0,-1.471585870E0,9.196623875E0
3.248088562E0,-5.056034088E0,-7.566105366E0,-1.478764415E0,9.219337032E0
3.250493405E0,-5.063212872E0,-7.599604607E0,-1.495514154E0,9.253468395E0
3.252898249E0,-5.079962254E0,-7.652246952E0,-1.505085468E0,9.307426184E0
3.255303093E0,-5.072783947E0,-7.702496052E0,-1.519442320E0,9.347207463E0
3.257707937E0,-5.063212872E0,-7.747959614E0,-1.509871125E0,9.377990914E0
3.260112780E0,-5.075176716E0,-7.814958572E0,-1.505085468E0,9.439082501E0
3.262517624E0,-5.070391178E0,-7.869993687E0,-1.490728498E0,9.479870188E0
3.264922468E0,-5.072783947E0,-7.915457249E0,-1.495514154E0,9.519672422E0
3.267327312E0,-5.075176716E0,-7.965706348E0,-1.471585870E0,9.559051276E0
3.269732155E0,-5.091926575E0,-8.051848412E0,-1.450050473E0,9.636525591E0
3.272136999E0,-5.101497650E0,-8.137989998E0,-1.450050473E0,9.713640196E0
3.274541895E0,-5.106283665E0,-8.193024635E0,-1.452443361E0,9.762652163E0
3.276946739E0,-5.125426292E0,-8.295916557E0,-1.440479279E0,9.857342784E0
3.279351583E0,-5.161318302E0,-8.372486115E0,-1.433300734E0,9.939420574E0
3.281756426E0,-5.185246468E0,-8.468199730E0,-1.433300734E0,1.003252404E1
3.284161270E0,-5.199603558E0,-8.571090698E0,-1.438086390E0,1.012756463E1
3.286566114E0,-5.237888813E0,-8.669196129E0,-1.433300734E0,1.022960369E1
3.288970958E0,-5.276174068E0,-8.750552177E0,-1.440479279E0,1.031916454E1
3.291375801E0,-5.321637630E0,-8.824729919E0,-1.445264935E0,1.040598270E1
3.293780645E0,-5.326423168E0,-8.908478737E0,-1.454836130E0,1.048085518E1
3.296185489E0,-5.362315655E0,-8.980263710E0,-1.476371527E0,1.056310742E1
3.298590333E0,-5.395814896E0,-9.006584167E0,-1.495514154E0,1.060518455E1
3.300995228E0,-5.407779217E0,-9.049654961E0,-1.514656782E0,1.065056412E1
3.303400072E0,-5.426921844E0,-9.097511292E0,-1.536192179E0,1.070402162E1
3.305804916E0,-5.462814331E0,-9.126225471E0,-1.543370605E0,1.074766601E1
3.308209760E0,-5.474778175E0,-9.162117958E0,-1.562513232E0,1.078698517E1
3.310614603E0,-5.489135265E0,-9.195617676E0,-1.581655741E0,1.082550808E1
3.313019447E0,-5.501099110E0,-9.219545364E0,-1.603191137E0,1.085506011E1
3.315424291E0,-5.503491879E0,-9.233902931E0,-1.588834286E0,1.086636004E1
3.317829135E0,-5.515456200E0,-9.224330902E0,-1.600798368E0,1.086605232E1
3.320233978E0,-5.493920803E0,-9.188439369E0,-1.600798368E0,1.082465423E1
3.322638822E0,-5.477170944E0,-9.142974854E0,-1.588834286E0,1.077579626E1
3.325043666E0,-5.474778175E0,-9.092725754E0,-1.586441398E0,1.073161936E1
3.327448510E0,-5.474778175E0,-9.047262192E0,-1.574477315E0,1.069135763E1
3.329853405E0,-5.493920803E0,-9.020941734E0,-1.574477315E0,1.067892946E1
3.332258249E0,-5.544169903E0,-9.020941734E0,-1.581655741E0,1.070592568E1
3.334663093E0,-5.613562107E0,-9.032905579E0,-1.572084427E0,1.075067031E1
3.337067937E0,-5.704489231E0,-9.078369141E0,-1.588834286E0,1.083892882E1
3.339472780E0,-5.816951752E0,-9.126225471E0,-1.603191137E0,1.094052745E1
3.341877624E0,-5.903093338E0,-9.181260109E0,-1.617548108E0,1.103442386E1
3.344282468E0,-5.979663849E0,-9.248259544E0,-1.639083505E0,1.113432886E1
3.346687312E0,-6.039484501E0,-9.296115875E0,-1.658226132E0,1.120905247E1
3.349092155E0,-6.068198204E0,-9.322437286E0,-1.674975872E0,1.124884041E1
3.351497051E0,-6.077769279E0,-9.341579437E0,-1.672582984E0,1.126951284E1
3.353901895E0,-6.058627129E0,-9.343972206E0,-1.686939955E0,1.126332747E1
3.356306687E0,-6.058627129E0,-9.332008362E0,-1.682154298E0,1.125268794E1
3.358711583E0,-6.029912949E0,-9.315258980E0,-1.655833244E0,1.121943331E1
3.361116426E0,-6.017949104E0,-9.298508644E0,-1.663011789E0,1.120015994E1
3.363521270E0,-6.015556335E0,-9.274580956E0,-1.631905079E0,1.117442992E1
3.365926114E0,-6.037091732E0,-9.257830620E0,-1.610369682E0,1.116902838E1
3.368330958E0,-6.056233883E0,-9.291330338E0,-1.591227055E0,1.120440948E1
3.370735801E0,-6.099305153E0,-9.334401131E0,-1.596012712E0,1.126409448E1
3.373140645E0,-6.151947021E0,-9.410971642E0,-1.610369682E0,1.135808654E1
3.375545489E0,-6.230910301E0,-9.525827408E0,-1.615155339E0,1.149671074E1
3.377950333E0,-6.326622963E0,-9.674181938E0,-1.653440475E0,1.167689255E1
3.380355228E0,-6.415157318E0,-9.841679573E0,-1.686939955E0,1.186838939E1
3.382760072E0,-6.486942291E0,-1.001635551E1,-1.730010748E0,1.205822272E1
3.385164916E0,-6.558726788E0,-1.019342422E1,-1.763510346E0,1.224878619E1
3.387569760E0,-6.597012043E0,-1.037288570E1,-1.799402595E0,1.242397583E1
3.389974603E0,-6.585047722E0,-1.055474091E1,-1.854437590E0,1.257793098E1
3.392379447E0,-6.575476646E0,-1.070309544E1,-1.899901152E0,1.270443897E1
3.394784291E0,-6.546762943E0,-1.083948612E1,-1.940579176E0,1.281094891E1
3.397189135E0,-6.482156754E0,-1.097587776E1,-1.959721804E0,1.289685072E1
3.399593978E0,-6.419943333E0,-1.110030460E1,-1.976471543E0,1.297454718E1
3.401998822E0,-6.340980053E0,-1.121515942E1,-1.971685886E0,1.303362475E1
3.404403666E0,-6.245266914E0,-1.131565857E1,-1.954936147E0,1.307169702E1
3.406808562E0,-6.151947021E0,-1.139462185E1,-1.945364833E0,1.309459062E1
3.409213405E0,-6.041877270E0,-1.146640587E1,-1.921436548E0,1.310246782E1
3.411618249E0,-5.924628735E0,-1.151186943E1,-1.883151412E0,1.308321912E1
3.414023093E0,-5.824130535E0,-1.156451225E1,-1.842473388E0,1.307872885E1
3.416427937E0,-5.711667538E0,-1.158843994E1,-1.770688772E0,1.304033838E1
3.418832780E0,-5.584847927E0,-1.161476135E1,-1.694118381E0,1.299858626E1
3.421237624E0,-5.460421085E0,-1.164347458E1,-1.610369682E0,1.296070944E1
3.423642468E0,-5.331208706E0,-1.165783215E1,-1.543370605E0,1.291157734E1
3.426047312E0,-5.204389095E0,-1.164108181E1,-1.476371527E0,1.283667108E1
3.428459239E0,-5.053641319E0,-1.162433243E1,-1.421336651E0,1.275478706E1
3.430856999E0,-4.934000492E0,-1.159083271E1,-1.373480201E0,1.267194585E1
3.433261895E0,-4.843072891E0,-1.152383423E1,-1.313659668E0,1.256900203E1
3.435666739E0,-4.721039295E0,-1.145922756E1,-1.261017561E0,1.245761910E1
3.438071583E0,-4.644468784E0,-1.138265705E1,-1.215553880E0,1.235368540E1
3.440476426E0,-4.579862595E0,-1.130608654E1,-1.160519004E0,1.225355208E1
3.442881270E0,-4.551148891E0,-1.121276665E1,-1.115055323E0,1.215246644E1
3.445286114E0,-4.529613495E0,-1.109551907E1,-1.088734269E0,1.203383912E1
3.447690958E0,-4.572684288E0,-1.098784161E1,-1.079162955E0,1.195017562E1
3.450095801E0,-4.625326157E0,-1.086580753E1,-1.060020447E0,1.185677270E1
3.452500645E0,-4.706682205E0,-1.072941685E1,-1.040877819E0,1.176251121E1
3.454905541E0,-4.785645485E0,-1.057627583E1,-1.024128079E0,1.165370548E1
3.457310385E0,-4.924428940E0,-1.042552853E1,-1.016949654E0,1.157479296E1
3.459715228E0,-5.065605640E0,-1.025563812E1,-9.978070259E-1,1.148190283E1
3.462120072E0,-5.182853699E0,-1.011924744E1,-9.595218897E-1,1.140972495E1
3.464524916E0,-5.312066078E0,-9.951749802E0,-9.403793216E-1,1.131988001E1
3.466929760E0,-5.422136307E0,-9.791430473E0,-9.116654396E-1,1.122955060E1
3.469334603E0,-5.513063431E0,-9.616754532E0,-8.877372146E-1,1.112042776E1
3.471739447E0,-5.582455158E0,-9.442078590E0,-8.638089895E-1,1.100285507E1
3.474144291E0,-5.642275810E0,-9.281759262E0,-8.470591903E-1,1.089512921E1
3.476549135E0,-5.702096462E0,-9.111868858E0,-8.350951076E-1,1.078134695E1
3.478953978E0,-5.764309883E0,-8.970691681E0,-8.327022791E-1,1.069551171E1
3.481358874E0,-5.816951752E0,-8.824729919E0,-8.279166222E-1,1.060180323E1
3.483763718E0,-5.876772404E0,-8.697910309E0,-8.087740541E-1,1.052825784E1
3.486168562E0,-5.934200287E0,-8.580661774E0,-8.231309652E-1,1.046518199E1
3.488573405E0,-6.022734642E0,-8.501698494E0,-8.231309652E-1,1.045130396E1
3.490978249E0,-6.077769279E0,-8.415556908E0,-8.327022791E-1,1.041413801E1
3.493383093E0,-6.116054535E0,-8.367700577E0,-8.566305041E-1,1.039992076E1
3.495787937E0,-6.175875187E0,-8.324629784E0,-8.757730722E-1,1.040230137E1
3.498192780E0,-6.216553211E0,-8.298309326E0,-9.188438654E-1,1.040921445E1
3.500597624E0,-6.240481377E0,-8.269595146E0,-9.858429432E-1,1.040681017E1
3.503002468E0,-6.242874146E0,-8.262416840E0,-1.038485050E0,1.040766356E1
3.505407364E0,-6.226124287E0,-8.231309891E0,-1.100698471E0,1.037933636E1
3.507812208E0,-6.206982136E0,-8.233702660E0,-1.165304661E0,1.037682137E1
3.510217051E0,-6.178267956E0,-8.243273735E0,-1.208375454E0,1.037220941E1
3.512621895E0,-6.108876228E0,-8.255238533E0,-1.280160069E0,1.034920972E1
3.515026739E0,-6.034698486E0,-8.283951759E0,-1.354337573E0,1.033806911E1
3.517431583E0,-5.934200287E0,-8.319844246E0,-1.423729420E0,1.031802049E1
3.519836426E0,-5.843272686E0,-8.343772888E0,-1.483550072E0,1.029384780E1
3.522241270E0,-5.706882000E0,-8.362915039E0,-1.552941918E0,1.024297216E1
3.524646114E0,-5.558526993E0,-8.398807526E0,-1.615155339E0,1.020029004E1
3.527050958E0,-5.395814896E0,-8.415556908E0,-1.682154298E0,1.013735959E1
3.529455801E0,-5.249852657E0,-8.437092781E0,-1.718046665E0,1.008450157E1
3.531860697E0,-5.075176716E0,-8.453842163E0,-1.744367719E0,1.001337529E1
3.534265541E0,-4.924428940E0,-8.489734650E0,-1.768295884E0,9.972585680E0
3.536670385E0,-4.778466702E0,-8.508877754E0,-1.763510346E0,9.916890309E0
3.539075228E0,-4.632504463E0,-8.506484032E0,-1.768295884E0,9.846178879E0
3.541480072E0,-4.493721008E0,-8.530412674E0,-1.773081541E0,9.803330406E0
3.543884916E0,-4.359723091E0,-8.551948547E0,-1.768295884E0,9.760629064E0
3.546289760E0,-4.247260094E0,-8.547162056E0,-1.741974831E0,9.701941755E0
3.548694603E0,-4.122833252E0,-8.573483467E0,-1.725225091E0,9.668442191E0
3.551099447E0,-4.041477680E0,-8.595019341E0,-1.706082582E0,9.649798810E0
3.553504343E0,-3.936193228E0,-8.606983185E0,-1.670190215E0,9.610583334E0
3.555909187E0,-3.857230186E0,-8.630910873E0,-1.636690736E0,9.594248474E0
3.558314030E0,-3.766302824E0,-8.650053978E0,-1.591227055E0,9.567678628E0
3.560718874E0,-3.692125320E0,-8.669196129E0,-1.562513232E0,9.551345377E0
3.563123718E0,-3.637090445E0,-8.697910309E0,-1.526620865E0,9.550530975E0
3.565528562E0,-3.572484255E0,-8.697910309E0,-1.476371527E0,9.518191024E0
3.567933405E0,-3.550948858E0,-8.707481384E0,-1.404586911E0,9.508014211E0
3.570338249E0,-3.493520975E0,-8.726624489E0,-1.337587833E0,9.494619791E0
3.572743093E0,-3.452843189E0,-8.717052460E0,-1.270588875E0,9.461687258E0
3.575147937E0,-3.440878868E0,-8.695517540E0,-1.203589797E0,9.428695619E0
3.577552833E0,-3.416950703E0,-8.690732002E0,-1.131805062E0,9.406665591E0
3.579957676E0,-3.400201082E0,-8.681160927E0,-1.067198873E0,9.384180085E0
3.582362520E0,-3.388236761E0,-8.647661209E0,-9.906286001E-1,9.340424924E0
3.584767364E0,-3.381058455E0,-8.602197647E0,-8.997012973E-1,9.286486045E0
3.587172208E0,-3.402593851E0,-8.575876236E0,-8.422735929E-1,9.264595131E0
3.589577051E0,-3.421736479E0,-8.578269005E0,-7.752745152E-1,9.268011126E0
3.591981895E0,-3.428914785E0,-8.556734085E0,-7.010970116E-1,9.244819729E0
3.594386739E0,-3.467200041E0,-8.530412674E0,-6.532405615E-1,9.231258838E0
3.596791583E0,-3.479164124E0,-8.532805443E0,-6.005984545E-1,9.234396040E0
3.599196426E0,-3.503092289E0,-8.501698494E0,-5.312066078E-1,9.210467595E0
3.601601322E0,-3.541377544E0,-8.484949112E0,-4.857429862E-1,9.207152795E0
3.604006166E0,-3.570091486E0,-8.446663857E0,-4.307080805E-1,9.180261052E0
3.606411010E0,-3.610769272E0,-8.425128937E0,-3.756731451E-1,9.173962211E0
3.608815853E0,-3.625126362E0,-8.405985832E0,-3.326023519E-1,9.160391000E0
3.611220697E0,-3.656233072E0,-8.377271652E0,-2.919243574E-1,9.145050051E0
3.613625541E0,-3.694518089E0,-8.350951195E0,-2.608176768E-1,9.135418744E0
3.616030385E0,-3.713660717E0,-8.317451477E0,-2.392822653E-1,9.111999286E0
3.618435228E0,-3.732803345E0,-8.283951759E0,-1.938186288E-1,9.088192517E0
3.620840072E0,-3.751945972E0,-8.260024071E0,-1.627119333E-1,9.073674636E0
3.623244968E0,-3.771088600E0,-8.221738815E0,-1.363908947E-1,9.046363958E0
3.625649812E0,-3.787838221E0,-8.183453560E0,-1.172483116E-1,9.018335640E0
3.628054655E0,-3.797409534E0,-8.154739380E0,-1.196411327E-1,8.996355236E0
3.630459499E0,-3.821337700E0,-8.123632431E0,-1.220339537E-1,8.978358312E0
3.632864343E0,-3.873979807E0,-8.109275818E0,-1.172483116E-1,8.987870771E0
3.635269187E0,-3.907479286E0,-8.080561638E0,-1.363908947E-1,8.976774099E0
3.637674030E0,-3.909872293E0,-8.042277336E0,-1.507478207E-1,8.943603916E0
3.640078874E0,-3.929014683E0,-8.018348694E0,-1.770688742E-1,8.930981219E0
3.642483718E0,-3.955335855E0,-7.999206066E0,-2.177468538E-1,8.926331447E0
3.644888614E0,-3.976871252E0,-7.965706348E0,-2.656033039E-1,8.907217731E0
3.647293458E0,-3.974478483E0,-7.913064480E0,-3.206382394E-1,8.860918550E0
3.649698301E0,-3.969692707E0,-7.879564762E0,-3.756731451E-1,8.831032292E0
3.652103145E0,-3.972085476E0,-7.829315662E0,-4.474578202E-1,8.790669216E0
3.654507989E0,-3.972085476E0,-7.774280548E0,-5.024927258E-1,8.744678382E0
3.656912833E0,-3.979264021E0,-7.731209755E0,-5.766702294E-1,8.714281094E0
3.659317676E0,-3.967299938E0,-7.690532207E0,-6.436693072E-1,8.677445742E0
3.661722520E0,-3.972085476E0,-7.657032490E0,-6.867401004E-1,8.653278081E0
3.664127364E0,-3.991228104E0,-7.611568928E0,-7.441678643E-1,8.626683553E0
3.666532260E0,-3.974478483E0,-7.566105366E0,-8.159525394E-1,8.585348459E0
3.668937051E0,-3.967299938E0,-7.530212879E0,-8.925228715E-1,8.558047200E0
3.671341947E0,-3.964907169E0,-7.489534855E0,-9.332008362E-1,8.525519633E0
3.673746791E0,-3.955335855E0,-7.448856831E0,-9.714859724E-1,8.489636907E0
3.676151635E0,-3.952943087E0,-7.410571575E0,-1.036092162E0,8.462612899E0
3.678556478E0,-3.929014683E0,-7.365108013E0,-1.071984529E0,8.416122816E0
3.680961322E0,-3.924229145E0,-7.348358154E0,-1.112662554E0,8.404520207E0
3.683366166E0,-3.909872293E0,-7.314858913E0,-1.162911773E0,8.375358265E0
3.685771010E0,-3.900300980E0,-7.264609337E0,-1.210768223E0,8.333838026E0
3.688175853E0,-3.905086517E0,-7.226324558E0,-1.241874933E0,8.307329335E0
3.690580697E0,-3.883551121E0,-7.188039303E0,-1.272981644E0,8.268637167E0
3.692985593E0,-3.905086517E0,-7.152146816E0,-1.313659668E0,8.254005483E0
3.695390437E0,-3.929014683E0,-7.104290485E0,-1.342373490E0,8.228612657E0
3.697795280E0,-3.943371773E0,-7.094718933E0,-1.351944804E0,8.228789245E0
3.700200124E0,-3.945764542E0,-7.109076023E0,-1.361516118E0,8.243891427E0
3.702604968E0,-3.967299938E0,-7.097112179E0,-1.387837172E0,8.248306620E0
3.705009812E0,-3.976871252E0,-7.104290485E0,-1.409372568E0,8.262734371E0
3.707414655E0,-4.000799656E0,-7.118647575E0,-1.430907965E0,8.290297871E0
3.709819499E0,-4.012763500E0,-7.121040344E0,-1.430907965E0,8.298131362E0
3.712224395E0,-4.024727821E0,-7.137789726E0,-1.440479279E0,8.319943315E0
3.714629239E0,-4.041477680E0,-7.130611420E0,-1.452443361E0,8.323986592E0
3.717034083E0,-4.055834293E0,-7.144968510E0,-1.469193101E0,8.346190460E0
3.719438926E0,-4.060619831E0,-7.152146816E0,-1.493121386E0,8.358902378E0
3.721843770E0,-4.048655987E0,-7.152146816E0,-1.502692580E0,8.354813246E0
3.724248614E0,-4.058227062E0,-7.168896675E0,-1.502692580E0,8.373790744E0
3.726653458E0,-4.060619831E0,-7.178467751E0,-1.502692580E0,8.383144854E0
3.729058301E0,-4.051048756E0,-7.192824841E0,-1.514656782E0,8.392967912E0
3.731463145E0,-4.051048756E0,-7.190432072E0,-1.526620865E0,8.393085289E0
3.733868041E0,-4.053441525E0,-7.221538544E0,-1.521835208E0,8.420035008E0
3.736272885E0,-4.055834293E0,-7.226324558E0,-1.512263894E0,8.423568159E0
3.738677728E0,-4.046263218E0,-7.245467186E0,-1.521835208E0,8.437121735E0
3.741082572E0,-4.053441525E0,-7.271788120E0,-1.524227977E0,8.463602164E0
3.743487416E0,-4.058227062E0,-7.298109055E0,-1.526620865E0,8.488944217E0
3.745892260E0,-4.053441525E0,-7.314858913E0,-1.519442320E0,8.499779649E0
3.748297103E0,-4.039084435E0,-7.345965385E0,-1.524227977E0,8.520603349E0
3.750701947E0,-4.041477680E0,-7.379465103E0,-1.512263894E0,8.548508006E0
3.753106791E0,-4.017549038E0,-7.412964344E0,-1.505085468E0,8.564929825E0
3.755511635E0,-4.017549038E0,-7.441678524E0,-1.490728498E0,8.587290084E0
3.757916530E0,-3.996013880E0,-7.491927624E0,-1.464407444E0,8.616356284E0
3.760321374E0,-3.964907169E0,-7.532605648E0,-1.450050473E0,8.635003363E0
3.762726218E0,-3.938585997E0,-7.568498135E0,-1.414158225E0,8.648379452E0
3.765131062E0,-3.912265062E0,-7.609176159E0,-1.371087432E0,8.665175156E0
3.767535905E0,-3.883551121E0,-7.642675400E0,-1.330409408E0,8.675393119E0
3.769940749E0,-3.857230186E0,-7.680960655E0,-1.282552958E0,8.690242999E0
3.772345593E0,-3.828516245E0,-7.707281590E0,-1.244267821E0,8.695281971E0
3.774750437E0,-3.823730469E0,-7.762316704E0,-1.205982566E0,8.736639472E0
3.777155333E0,-3.828516245E0,-7.788637638E0,-1.148554921E0,8.754404109E0
3.779560176E0,-3.797409534E0,-7.843672752E0,-1.100698471E0,8.783795224E0
3.781965020E0,-3.780659676E0,-7.881958008E0,-1.045663476E0,8.804093464E0
3.784369864E0,-3.778266907E0,-7.932207108E0,-1.004985452E0,8.843370747E0
3.786774708E0,-3.792623997E0,-7.994420528E0,-9.619147182E-1,8.900563819E0
3.789179551E0,-3.780659676E0,-8.059026718E0,-9.140582681E-1,8.948564228E0
3.791584395E0,-3.787838221E0,-8.128418922E0,-8.662018180E-1,9.009396104E0
3.793989239E0,-3.811766386E0,-8.169096947E0,-8.207381964E-1,9.051923502E0
3.796394083E0,-3.818944931E0,-8.212167740E0,-7.824530005E-1,9.090449498E0
3.798798926E0,-3.828516245E0,-8.260024071E0,-7.250252366E-1,9.132973003E0
3.801203822E0,-3.823730469E0,-8.312665939E0,-6.747759581E-1,9.174783502E0
3.803608666E0,-3.806980848E0,-8.348558426E0,-6.149554253E-1,9.196178616E0
3.806013510E0,-3.818944931E0,-8.377271652E0,-5.814558864E-1,9.225026378E0
3.808418353E0,-3.809373617E0,-8.405985832E0,-5.359922647E-1,9.244415226E0
3.810823197E0,-3.833301783E0,-8.429914474E0,-4.977070987E-1,9.273908182E0
3.813228041E0,-3.850051641E0,-8.453842163E0,-4.737788737E-1,9.301333850E0
3.815632885E0,-3.871587038E0,-8.463413239E0,-4.522434771E-1,9.317889997E0
3.818037780E0,-3.871587038E0,-8.496912956E0,-4.115654826E-1,9.346448637E0
3.820442572E0,-3.876372576E0,-8.492127419E0,-3.924229145E-1,9.343258970E0
3.822847468E0,-3.900300980E0,-8.504091263E0,-3.948157430E-1,9.364176174E0
3.825252312E0,-3.900300980E0,-8.520841599E0,-3.900300860E-1,9.379190410E0
3.827657155E0,-3.905086517E0,-8.528019905E0,-3.684946895E-1,9.386831869E0
3.830061999E0,-3.881158352E0,-8.513663292E0,-3.708875179E-1,9.363942031E0
3.832466843E0,-3.869194269E0,-8.508877754E0,-3.804588020E-1,9.355020782E0
3.834871687E0,-3.859622955E0,-8.492127419E0,-3.780659735E-1,9.335729823E0
3.837276530E0,-3.833301783E0,-8.449056625E0,-3.972085714E-1,9.286470539E0
3.839681374E0,-3.818944931E0,-8.415556908E0,-4.139583111E-1,9.250799962E0
3.842086270E0,-3.795016766E0,-8.372486115E0,-4.139583111E-1,9.201741002E0
3.844491114E0,-3.759124279E0,-8.315058708E0,-4.354937077E-1,9.135692171E0
3.846895958E0,-3.747160196E0,-8.269595146E0,-4.450650215E-1,9.089856781E0
3.849300801E0,-3.759124279E0,-8.226524353E0,-4.498506486E-1,9.055886698E0
3.851705645E0,-3.761517286E0,-8.193024635E0,-4.713860750E-1,9.027561675E0
3.854110489E0,-3.778266907E0,-8.157132149E0,-4.881358147E-1,9.002909657E0
3.856515333E0,-3.775874138E0,-8.111668587E0,-4.953143001E-1,8.961123201E0
3.858920176E0,-3.787838221E0,-8.066205025E0,-5.000999570E-1,8.925328109E0
3.861325020E0,-3.809373617E0,-8.027919769E0,-5.120640397E-1,8.900619796E0
3.863729916E0,-3.850051641E0,-7.970492363E0,-5.288137794E-1,8.867428611E0
3.866134760E0,-3.888336897E0,-7.953742504E0,-5.527420044E-1,8.870552822E0
3.868539603E0,-3.948157310E0,-7.936992645E0,-5.886343718E-1,8.884271992E0
3.870944447E0,-3.976871252E0,-7.927421570E0,-6.005984545E-1,8.889332720E0
3.873349291E0,-4.029513359E0,-7.905886173E0,-5.982056856E-1,8.893698001E0
3.875754135E0,-4.101297855E0,-7.917850018E0,-6.077769399E-1,8.937694658E0
3.878158978E0,-4.168296814E0,-7.932207108E0,-6.317051649E-1,8.982964953E0
3.880563822E0,-4.242474556E0,-7.975277901E0,-6.604190469E-1,9.057582529E0
3.882968718E0,-4.273581028E0,-8.006384850E0,-7.130611539E-1,9.103524008E0
3.885373562E0,-4.299902439E0,-8.042277336E0,-7.298108935E-1,9.148770938E0
3.887778405E0,-4.345366001E0,-8.123632431E0,-7.633104324E-1,9.244363276E0
3.890183249E0,-4.357329845E0,-8.178668022E0,-7.848458290E-1,9.300156825E0
3.892588093E0,-4.405186653E0,-8.214560509E0,-8.183453679E-1,9.357048837E0
3.894992937E0,-4.469792843E0,-8.283951759E0,-8.327022791E-1,9.449671841E0
3.897397780E0,-4.488935471E0,-8.331808090E0,-8.590233326E-1,9.503025244E0
3.899802624E0,-4.524827480E0,-8.405985832E0,-8.901300430E-1,9.587856540E0
3.902207468E0,-4.548755646E0,-8.465806961E0,-9.188438654E-1,9.654291247E0
3.904612364E0,-4.610969067E0,-8.542376518E0,-9.284151793E-1,9.751676115E0
3.907017208E0,-4.627718925E0,-8.616554260E0,-9.499505758E-1,9.826657411E0
3.909422051E0,-4.654039860E0,-8.685946465E0,-9.954141974E-1,9.904372894E0
3.911826895E0,-4.685146809E0,-8.760123253E0,-1.033699393E0,9.987937448E0
3.914231739E0,-4.694717884E0,-8.827122688E0,-1.057627559E0,1.005370812E1
3.916636583E0,-4.699503899E0,-8.896514893E0,-1.088734269E0,1.012021030E1
3.919041426E0,-4.740181446E0,-8.961120605E0,-1.115055323E0,1.019874262E1
3.921446270E0,-4.778466702E0,-9.016156197E0,-1.141376376E0,1.026779220E1
3.923851166E0,-4.800002098E0,-9.087940216E0,-1.143769264E0,1.034112594E1
3.926256010E0,-4.831109047E0,-9.169296265E0,-1.177268744E0,1.043079912E1
3.928660853E0,-4.855037212E0,-9.221938133E0,-1.215553880E0,1.049252594E1
3.931065697E0,-4.888536453E0,-9.267401695E0,-1.246660590E0,1.055162004E1
3.933470541E0,-4.914857864E0,-9.322437286E0,-1.265803218E0,1.061442050E1
3.935875385E0,-4.943571568E0,-9.367900848E0,-1.296909928E0,1.067138424E1
3.938280228E0,-4.957928658E0,-9.408578873E0,-1.328016520E0,1.071755760E1
3.940685072E0,-4.972285271E0,-9.439684868E0,-1.356730461E0,1.075509129E1
3.943089916E0,-4.974678040E0,-9.468399048E0,-1.378265858E0,1.078413737E1
3.945494812E0,-4.989035130E0,-9.492327690E0,-1.380658627E0,1.081207541E1
3.947899655E0,-5.000999451E0,-9.504291534E0,-1.383051515E0,1.082840637E1
3.950304499E0,-5.022534847E0,-9.509077072E0,-1.406979680E0,1.084564405E1
3.952709343E0,-5.024927616E0,-9.516255379E0,-1.406979680E0,1.085304592E1
3.955114187E0,-5.032105923E0,-9.530612946E0,-1.397408366E0,1.086772392E1
3.957519030E0,-5.048855782E0,-9.518648148E0,-1.402194023E0,1.086562264E1
3.959923874E0,-5.051248550E0,-9.501898766E0,-1.387837172E0,1.085022046E1
3.962328718E0,-5.036891460E0,-9.463613510E0,-1.375872970E0,1.080848198E1
