"Time (s)","Acceleration x (m/s^2)","Acceleration y (m/s^2)","Acceleration z (m/s^2)","Absolute acceleration (m/s^2)"
1.130912900E-2,-3.235096216E0,-5.400600910E0,6.520441532E0,9.063580721E0
1.371183700E-2,-3.225524902E0,-5.412564754E0,6.510870457E0,9.060425057E0
1.611683700E-2,-3.201596737E0,-5.412564754E0,6.515655994E0,9.055376962E0
1.852183700E-2,-3.184846878E0,-5.424529076E0,6.508477688E0,9.051466574E0
2.092688900E-2,-3.158525944E0,-5.446064472E0,6.506084919E0,9.053454884E0
2.333188900E-2,-3.134597778E0,-5.462814331E0,6.501298904E0,9.051791596E0
2.573688900E-2,-3.113062143E0,-5.462814331E0,6.520441532E0,9.058126412E0
2.814194100E-2,-3.108276606E0,-5.469992638E0,6.534798622E0,9.071151853E0
3.054694100E-2,-3.115455151E0,-5.472385406E0,6.553941250E0,9.088850793E0
3.295194100E-2,-3.115455151E0,-5.481956482E0,6.585047722E0,9.117058800E0
3.535699300E-2,-3.127419233E0,-5.479563713E0,6.599404812E0,9.130088358E0
3.776199300E-2,-3.117847919E0,-5.496313572E0,6.628118515E0,9.157641267E0
4.016699300E-2,-3.125026464E0,-5.477170944E0,6.671189308E0,9.179867033E0
4.257199300E-2,-3.134597778E0,-5.484349728E0,6.683153629E0,9.196104480E0
4.497704500E-2,-3.129812002E0,-5.491528034E0,6.695117950E0,9.207453920E0
4.738204500E-2,-3.146561861E0,-5.496313572E0,6.714260101E0,9.229929747E0
4.978709700E-2,-3.163311481E0,-5.479563713E0,6.733402729E0,9.239635833E0
5.219209700E-2,-3.160918713E0,-5.489135265E0,6.735795975E0,9.246240343E0
5.459709700E-2,-3.168097258E0,-5.474778175E0,6.735795975E0,9.240183100E0
5.700209700E-2,-3.168097258E0,-5.491528034E0,6.733402729E0,9.248374597E0
5.940715000E-2,-3.175275564E0,-5.489135265E0,6.735795975E0,9.251158213E0
6.181215000E-2,-3.160918713E0,-5.474778175E0,6.695117950E0,9.208105535E0
6.421720200E-2,-3.153740168E0,-5.486742496E0,6.666403770E0,9.191918162E0
6.662220200E-2,-3.122633457E0,-5.481956482E0,6.649653912E0,9.166274255E0
6.902720200E-2,-3.115455151E0,-5.450850010E0,6.620940208E0,9.124400028E0
7.143225400E-2,-3.084348440E0,-5.450850010E0,6.549155712E0,9.061810618E0
7.383725400E-2,-3.050848961E0,-5.446064472E0,6.489335060E0,9.004374889E0
7.624225400E-2,-3.026920557E0,-5.436492920E0,6.427121639E0,8.945702649E0
7.864725400E-2,-3.007778168E0,-5.407779217E0,6.352943897E0,8.868523086E0
8.105230600E-2,-2.976671457E0,-5.405386448E0,6.271588326E0,8.798385974E0
8.345730600E-2,-2.957528830E0,-5.393422127E0,6.211767673E0,8.741969838E0
8.586230600E-2,-2.967100143E0,-5.410171986E0,6.163911343E0,8.721665392E0
8.826735800E-2,-3.014956474E0,-5.414957523E0,6.135197163E0,8.720801095E0
9.067235800E-2,-3.060420275E0,-5.436492920E0,6.144768715E0,8.756700868E0
9.307735800E-2,-3.079562664E0,-5.467599869E0,6.159125328E0,8.792791328E0
9.548241000E-2,-3.117847919E0,-5.505885124E0,6.178267956E0,8.843457558E0
9.788741000E-2,-3.134597778E0,-5.563312531E0,6.218945980E0,8.913553649E0
1.002924100E-1,-3.110669374E0,-5.613562107E0,6.242874146E0,8.953313414E0
1.026974620E-1,-3.091526747E0,-5.649454117E0,6.245266914E0,8.970910114E0
1.051024620E-1,-3.060420275E0,-5.673382282E0,6.259624004E0,8.985339807E0
1.075074620E-1,-3.031706333E0,-5.702096462E0,6.276373863E0,9.005443700E0
1.099125140E-1,-3.014956474E0,-5.687739372E0,6.283552170E0,8.995741747E0
1.123175140E-1,-2.971885681E0,-5.706882000E0,6.283552170E0,8.993532928E0
1.147225140E-1,-2.950350285E0,-5.711667538E0,6.269195557E0,8.979450194E0
1.171275660E-1,-2.940778971E0,-5.733202934E0,6.278766632E0,8.996705356E0
1.195325660E-1,-2.957528830E0,-5.752345562E0,6.262016773E0,9.002739045E0
1.219375660E-1,-2.945564747E0,-5.778666496E0,6.259624004E0,9.014001932E0
1.243426180E-1,-2.945564747E0,-5.788238049E0,6.247660160E0,9.011842701E0
1.267476180E-1,-2.940778971E0,-5.802595139E0,6.214160442E0,8.996337105E0
1.291526180E-1,-2.928814888E0,-5.819344521E0,6.171089649E0,8.973576475E0
1.315576700E-1,-2.940778971E0,-5.824130535E0,6.144768715E0,8.962525314E0
1.339626700E-1,-2.943171740E0,-5.843272686E0,6.111268997E0,8.952860120E0
1.363676700E-1,-2.912065268E0,-5.845665932E0,6.068198204E0,8.914873176E0
1.387727220E-1,-2.885744095E0,-5.850451469E0,6.003592014E0,8.865574908E0
1.411777220E-1,-2.840280533E0,-5.860022545E0,5.931807518E0,8.808711493E0
1.435827220E-1,-2.806781054E0,-5.850451469E0,5.862415314E0,8.744925133E0
1.459877750E-1,-2.785245657E0,-5.843272686E0,5.783452511E0,8.680423492E0
1.483927750E-1,-2.754138947E0,-5.848058701E0,5.706882000E0,8.622851852E0
1.507977750E-1,-2.732603550E0,-5.838487148E0,5.635097504E0,8.562089594E0
1.532028270E-1,-2.706282377E0,-5.833701611E0,5.565705299E0,8.504887669E0
1.556078270E-1,-2.672782898E0,-5.821737289E0,5.496313572E0,8.440726057E0
1.580128270E-1,-2.651247501E0,-5.836094379E0,5.410171986E0,8.388031464E0
1.604178790E-1,-2.646461725E0,-5.814558983E0,5.328815937E0,8.319202793E0
1.628228790E-1,-2.660818815E0,-5.814558983E0,5.273781300E0,8.288656232E0
1.652278790E-1,-2.672782898E0,-5.812166214E0,5.213960648E0,8.252904347E0
1.676329310E-1,-2.687139750E0,-5.821737289E0,5.158925533E0,8.229693661E0
1.700379310E-1,-2.744567633E0,-5.800201893E0,5.108676434E0,8.202046598E0
1.724429310E-1,-2.790031195E0,-5.804987907E0,5.075176716E0,8.199974230E0
1.748479310E-1,-2.840280533E0,-5.812166214E0,5.020142078E0,8.188424518E0
1.772529830E-1,-2.892922640E0,-5.826523304E0,4.993820667E0,8.200952388E0
1.796579830E-1,-2.993421078E0,-5.862415314E0,4.977071285E0,8.252255548E0
1.820629830E-1,-3.084348440E0,-5.891129494E0,4.953142643E0,8.291696693E0
1.844680350E-1,-3.177668571E0,-5.934200287E0,4.948357105E0,8.354552569E0
1.868730350E-1,-3.235096216E0,-5.986842155E0,4.948357105E0,8.413938707E0
1.892780350E-1,-3.299702406E0,-6.013163090E0,4.941178799E0,8.453485330E0
1.916830870E-1,-3.342773199E0,-6.056233883E0,4.929214478E0,8.494071866E0
1.940880870E-1,-3.378665686E0,-6.094519138E0,4.926821709E0,8.534173510E0
1.964930870E-1,-3.395415306E0,-6.139982700E0,4.917250633E0,8.567822737E0
1.988981390E-1,-3.424129248E0,-6.192625046E0,4.902893543E0,8.608811251E0
2.013031390E-1,-3.450450182E0,-6.211767673E0,4.888536453E0,8.624932043E0
2.037081390E-1,-3.455235958E0,-6.235695839E0,4.876572609E0,8.637332837E0
2.061131910E-1,-3.474378586E0,-6.259624004E0,4.869394302E0,8.658244632E0
2.085181910E-1,-3.495913982E0,-6.307480335E0,4.850251675E0,8.690837938E0
2.109231910E-1,-3.534198999E0,-6.376872540E0,4.823930264E0,8.742160439E0
2.133282430E-1,-3.558127165E0,-6.427121639E0,4.826323509E0,8.789855522E0
2.157332430E-1,-3.613162279E0,-6.484549522E0,4.809573650E0,8.845129895E0
2.181382430E-1,-3.615555048E0,-6.546762943E0,4.816751957E0,8.895697991E0
2.205432950E-1,-3.653840065E0,-6.604190350E0,4.831109047E0,8.961333161E0
2.229482950E-1,-3.711267948E0,-6.642475605E0,4.831109047E0,9.013079749E0
2.253532950E-1,-3.775874138E0,-6.714260101E0,4.857429981E0,9.106763434E0
2.277583470E-1,-3.828516245E0,-6.774080753E0,4.895715237E0,9.193135176E0
2.301633470E-1,-3.907479286E0,-6.826723099E0,4.955535889E0,9.296767104E0
2.325683470E-1,-3.955335855E0,-6.867401123E0,5.015356064E0,9.378682016E0
2.349734000E-1,-4.019941807E0,-6.917650223E0,5.048855782E0,9.460695611E0
2.373784000E-1,-4.039084435E0,-6.960721016E0,5.125426292E0,9.541270084E0
2.397834000E-1,-4.072584152E0,-7.015756130E0,5.185246468E0,9.627749305E0
2.421884000E-1,-4.077369690E0,-7.089933395E0,5.266602516E0,9.727754171E0
2.445934520E-1,-4.063013077E0,-7.113861561E0,5.319244862E0,9.767776997E0
2.469984520E-1,-4.027120590E0,-7.156932354E0,5.367101192E0,9.810461568E0
2.494034520E-1,-3.976871252E0,-7.211967468E0,5.424529076E0,9.861718684E0
2.518085040E-1,-3.943371773E0,-7.235895634E0,5.455635548E0,9.882931032E0
2.542135040E-1,-3.890729666E0,-7.274180889E0,5.498706341E0,9.913992958E0
2.566185040E-1,-3.842873096E0,-7.312466145E0,5.539384365E0,9.946085355E0
2.590235560E-1,-3.806980848E0,-7.345965385E0,5.558526993E0,9.967624238E0
2.614285560E-1,-3.742374659E0,-7.389036179E0,5.553741455E0,9.972325099E0
2.638335560E-1,-3.689732552E0,-7.446464062E0,5.563312531E0,1.000071996E1
2.662386080E-1,-3.639483213E0,-7.456035137E0,5.577669621E0,9.997434492E0
2.686436080E-1,-3.591626883E0,-7.463213921E0,5.580062389E0,9.986813404E0
2.710486080E-1,-3.555734396E0,-7.515855789E0,5.541777134E0,9.992128359E0
2.734536600E-1,-3.548556089E0,-7.594819069E0,5.515456200E0,1.003462925E1
2.758586600E-1,-3.560520172E0,-7.649854183E0,5.489135265E0,1.006618989E1
2.782636600E-1,-3.555734396E0,-7.690532207E0,5.446064472E0,1.007209764E1
2.806687120E-1,-3.548556089E0,-7.712067604E0,5.398207664E0,1.006026257E1
2.830737120E-1,-3.553341627E0,-7.735995770E0,5.369493961E0,1.006495567E1
2.854787120E-1,-3.570091486E0,-7.743174076E0,5.319244862E0,1.004970964E1
2.878837640E-1,-3.608376503E0,-7.774280548E0,5.233103275E0,1.004217053E1
2.902887640E-1,-3.617947817E0,-7.805387497E0,5.170889854E0,1.003751574E1
2.926937640E-1,-3.641875982E0,-7.826922894E0,5.115854740E0,1.003473728E1
2.950988160E-1,-3.684946775E0,-7.841279984E0,5.056034088E0,1.003135012E1
2.975038160E-1,-3.728017569E0,-7.855636597E0,5.003392220E0,1.003210222E1
2.999088160E-1,-3.804588079E0,-7.826922894E0,4.950749874E0,1.001226931E1
3.023138160E-1,-3.888336897E0,-7.795815945E0,4.874179840E0,9.982561754E0
3.047188680E-1,-3.986442566E0,-7.786244869E0,4.792823792E0,9.974391881E0
3.071238680E-1,-4.084548473E0,-7.774280548E0,4.701896667E0,9.961466084E0
3.095288680E-1,-4.185046673E0,-7.781459332E0,4.577469826E0,9.950826849E0
3.119339200E-1,-4.299902439E0,-7.786244869E0,4.448257446E0,9.944936624E0
3.143389200E-1,-4.417150497E0,-7.776673794E0,4.311866283E0,9.928749401E0
3.167439200E-1,-4.508078098E0,-7.771887779E0,4.163511276E0,9.902516546E0
3.191489720E-1,-4.606183529E0,-7.795815945E0,4.024727821E0,9.909092137E0
3.215539720E-1,-4.718646049E0,-7.805387497E0,3.897907972E0,9.918839704E0
3.239589720E-1,-4.809573650E0,-7.822137356E0,3.766302824E0,9.924861131E0
3.263640250E-1,-4.898108006E0,-7.862815380E0,3.658625841E0,9.959963393E0
3.287690250E-1,-4.979464054E0,-7.910671711E0,3.541377544E0,9.995756304E0
3.311740250E-1,-5.029713154E0,-7.980063438E0,3.428914785E0,1.003677655E1
3.335790770E-1,-5.070391178E0,-8.042277336E0,3.357130051E0,1.008253012E1
3.359840770E-1,-5.103890896E0,-8.087740898E0,3.285345554E0,1.011210910E1
3.383890770E-1,-5.144568920E0,-8.121239662E0,3.220739365E0,1.013875165E1
3.407941290E-1,-5.175675392E0,-8.142775536E0,3.144168854E0,1.014781784E1
3.431991290E-1,-5.185246468E0,-8.188239098E0,3.086741209E0,1.017162778E1
3.456041290E-1,-5.187639713E0,-8.209774017E0,3.043670416E0,1.017722579E1
3.480091810E-1,-5.201996326E0,-8.236095428E0,3.014956474E0,1.019725435E1
3.504141810E-1,-5.216353416E0,-8.257631302E0,3.010170937E0,1.022056489E1
3.528250660E-1,-5.187639713E0,-8.274380684E0,3.005385160E0,1.021808796E1
3.552241810E-1,-5.170889854E0,-8.298309326E0,3.031706333E0,1.023676135E1
3.576292330E-1,-5.149354458E0,-8.307880402E0,3.048455954E0,1.023864306E1
3.600342330E-1,-5.096712112E0,-8.355736732E0,3.072384357E0,1.025837981E1
3.624392850E-1,-5.070391178E0,-8.396414757E0,3.091526747E0,1.028426882E1
3.648442850E-1,-5.046463013E0,-8.444271088E0,3.108276606E0,1.031668002E1
3.672492850E-1,-5.029713154E0,-8.465806961E0,3.134597778E0,1.033409915E1
3.696542850E-1,-4.993820667E0,-8.508877754E0,3.182454109E0,1.036664168E1
3.720593370E-1,-4.960321426E0,-8.520841599E0,3.232703447E0,1.037592896E1
3.744643370E-1,-4.938786030E0,-8.554341316E0,3.280559778E0,1.040819078E1
3.768693370E-1,-4.919643402E0,-8.575876236E0,3.352344513E0,1.043967232E1
3.792743890E-1,-4.910071850E0,-8.611768723E0,3.428914785E0,1.048946246E1
3.816793890E-1,-4.869394302E0,-8.614161491E0,3.476771355E0,1.048821806E1
3.840843890E-1,-4.840680122E0,-8.626125336E0,3.522234917E0,1.049992196E1
3.864894410E-1,-4.800002098E0,-8.621339798E0,3.570091486E0,1.049347765E1
3.888944410E-1,-4.773681164E0,-8.642875671E0,3.584448338E0,1.050407548E1
3.912994410E-1,-4.773681164E0,-8.669196129E0,3.605983734E0,1.053309603E1
3.937044930E-1,-4.764110088E0,-8.635697365E0,3.608376503E0,1.050201861E1
3.961094930E-1,-4.778466702E0,-8.626125336E0,3.634697676E0,1.050974831E1
3.985144930E-1,-4.828716278E0,-8.616554260E0,3.644268990E0,1.052816246E1
4.009194930E-1,-4.902893543E0,-8.606983185E0,3.632304668E0,1.055045790E1
4.033245450E-1,-4.989035130E0,-8.621339798E0,3.591626883E0,1.058856719E1
4.057295450E-1,-5.060820103E0,-8.642875671E0,3.531806231E0,1.062002143E1
4.081345450E-1,-5.106283665E0,-8.669196129E0,3.462414265E0,1.064036686E1
4.105395970E-1,-5.151747227E0,-8.721838951E0,3.395415306E0,1.068362388E1
4.129445970E-1,-5.204389095E0,-8.767302513E0,3.306880951E0,1.071852233E1
4.153495970E-1,-5.247459888E0,-8.817551613E0,3.192025423E0,1.074588656E1
4.177546500E-1,-5.278566837E0,-8.846264839E0,3.091526747E0,1.075533389E1
4.201596500E-1,-5.297709465E0,-8.860622406E0,2.979064226E0,1.074482102E1
4.225646500E-1,-5.321637630E0,-8.889336586E0,2.904886723E0,1.076004177E1
4.249697020E-1,-5.340780258E0,-8.934800148E0,2.835494757E0,1.078863374E1
4.273747020E-1,-5.343173027E0,-8.989834785E0,2.763710260E0,1.081687209E1
4.297797020E-1,-5.338387489E0,-9.013762474E0,2.684746981E0,1.081453472E1
4.321847540E-1,-5.300102234E0,-9.047262192E0,2.615355253E0,1.080667016E1
4.345897540E-1,-5.261816978E0,-9.066405296E0,2.545963287E0,1.078741637E1
4.369947540E-1,-5.206781864E0,-9.075976372E0,2.488535643E0,1.075531190E1
4.393998060E-1,-5.158925533E0,-9.073583603E0,2.416750908E0,1.071378164E1
4.418048060E-1,-5.111069202E0,-9.080761909E0,2.340180635E0,1.067987409E1
4.442098060E-1,-5.053641319E0,-9.052047729E0,2.270788670E0,1.061297978E1
4.466148060E-1,-5.015356064E0,-9.061619759E0,2.201396942E0,1.058833781E1
4.490198580E-1,-4.972285271E0,-9.061619759E0,2.153540373E0,1.055813950E1
4.514248580E-1,-4.922036171E0,-9.056833267E0,2.084148407E0,1.051647961E1
4.538298580E-1,-4.855037212E0,-9.044869423E0,2.012363911E0,1.046091094E1
4.562349100E-1,-4.802394867E0,-9.054440498E0,1.974078655E0,1.043757039E1
4.586399100E-1,-4.752145767E0,-9.032905579E0,1.919043779E0,1.038551884E1
4.610449100E-1,-4.685146809E0,-9.037691116E0,1.856830359E0,1.034786356E1
4.634499620E-1,-4.627718925E0,-9.030512810E0,1.789831281E0,1.030385559E1
4.658549620E-1,-4.577469826E0,-9.035298347E0,1.734796405E0,1.027615516E1
4.682599620E-1,-4.527220249E0,-9.032905579E0,1.660618901E0,1.023947076E1
4.706650140E-1,-4.488935471E0,-9.016156197E0,1.593619823E0,1.019711912E1
4.730700140E-1,-4.462614059E0,-9.013762474E0,1.514656782E0,1.017138257E1
4.754750140E-1,-4.419543266E0,-9.013762474E0,1.440479279E0,1.014175809E1
4.778800660E-1,-4.398007870E0,-9.025727272E0,1.337587833E0,1.012893712E1
4.802850660E-1,-4.393222332E0,-9.016156197E0,1.253839016E0,1.010760047E1
4.826900660E-1,-4.395615101E0,-9.016156197E0,1.174875975E0,1.009915037E1
4.850950660E-1,-4.395615101E0,-9.013762474E0,1.074377418E0,1.008581345E1
4.875001180E-1,-4.400400639E0,-9.016156197E0,9.667003751E-1,1.007914222E1
4.899051180E-1,-4.417150497E0,-9.006584167E0,8.518448472E-1,1.006754273E1
4.923101180E-1,-4.409972191E0,-9.028120041E0,7.345965505E-1,1.007444481E1
4.947151700E-1,-4.429114819E0,-9.049654961E0,6.340979934E-1,1.009531541E1
4.971201700E-1,-4.448257446E0,-9.066405296E0,5.335994363E-1,1.011293368E1
4.995251700E-1,-4.488935471E0,-9.083154678E0,4.187439680E-1,1.014049245E1
5.019302220E-1,-4.493721008E0,-9.087940216E0,3.134597540E-1,1.014309829E1
5.043352220E-1,-4.512863636E0,-9.104690552E0,2.153540403E-1,1.016403983E1
5.067402220E-1,-4.539184570E0,-9.109476089E0,1.387837082E-1,1.017870385E1
5.091452750E-1,-4.555934429E0,-9.154939651E0,3.828516230E-2,1.022599258E1
5.115502750E-1,-4.572684288E0,-9.166903496E0,-4.307080805E-2,1.024418940E1
5.139552750E-1,-4.601397991E0,-9.176474571E0,-1.148554832E-1,1.026614537E1
5.163603270E-1,-4.639683247E0,-9.181260109E0,-1.914258152E-1,1.028877260E1
5.187653270E-1,-4.680361271E0,-9.190832138E0,-2.464607358E-1,1.031687549E1
5.211703270E-1,-4.744967461E0,-9.188439369E0,-3.206382394E-1,1.034625261E1
5.235753270E-1,-4.792823792E0,-9.193224907E0,-3.732803464E-1,1.037428948E1
5.259803790E-1,-4.838287354E0,-9.176474571E0,-4.235295951E-1,1.038248946E1
5.283853790E-1,-4.876572609E0,-9.166903496E0,-4.761717021E-1,1.039422049E1
5.307903790E-1,-4.912465096E0,-9.147761345E0,-5.264210105E-1,1.039668072E1
5.331954310E-1,-4.967499733E0,-9.145368576E0,-5.623133183E-1,1.042257244E1
5.356004310E-1,-5.029713154E0,-9.145368576E0,-6.317051649E-1,1.045632977E1
5.380054310E-1,-5.106283665E0,-9.147761345E0,-7.082754970E-1,1.050034879E1
5.404104830E-1,-5.178068161E0,-9.154939651E0,-7.704889178E-1,1.054604016E1
5.428154830E-1,-5.240281582E0,-9.140582085E0,-8.135597110E-1,1.056752910E1
5.452204830E-1,-5.292923450E0,-9.145368576E0,-8.446664214E-1,1.060029558E1
5.476255350E-1,-5.350351334E0,-9.135796547E0,-8.973084688E-1,1.062516825E1
5.500305350E-1,-5.426921844E0,-9.133403778E0,-9.260223508E-1,1.066433602E1
5.524355350E-1,-5.513063431E0,-9.154939651E0,-9.762716293E-1,1.073125783E1
5.548405870E-1,-5.596812248E0,-9.171689034E0,-1.019342422E0,1.079274043E1
5.572455870E-1,-5.659025669E0,-9.181260109E0,-1.062413216E0,1.083738117E1
5.596505870E-1,-5.711667538E0,-9.176474571E0,-1.110269666E0,1.086570432E1
5.620555870E-1,-5.757131100E0,-9.183652878E0,-1.143769264E0,1.089918560E1
5.644606390E-1,-5.797809124E0,-9.200403214E0,-1.182054400E0,1.093888763E1
5.668656390E-1,-5.836094379E0,-9.205188751E0,-1.229910851E0,1.096850848E1
5.692706390E-1,-5.869594097E0,-9.195617676E0,-1.241874933E0,1.097969820E1
5.716756910E-1,-5.888736725E0,-9.183652878E0,-1.275374413E0,1.098377350E1
5.740806910E-1,-5.905486107E0,-9.174081802E0,-1.287338614E0,1.098616329E1
5.764856910E-1,-5.929414749E0,-9.166903496E0,-1.284945726E0,1.099277783E1
5.788907430E-1,-5.941378593E0,-9.166903496E0,-1.265803218E0,1.099701583E1
5.812957430E-1,-5.946164131E0,-9.157332420E0,-1.241874933E0,1.098889705E1
5.837007430E-1,-5.950950146E0,-9.140582085E0,-1.215553880E0,1.097458973E1
5.861057950E-1,-5.936593056E0,-9.114261627E0,-1.174875975E0,1.094044038E1
5.885107950E-1,-5.910272121E0,-9.095118523E0,-1.117448211E0,1.090418213E1
5.909157950E-1,-5.881557941E0,-9.073583603E0,-1.086341500E0,1.086751034E1
5.933208470E-1,-5.876772404E0,-9.052047729E0,-1.045663476E0,1.084294398E1
5.957258470E-1,-5.871986866E0,-9.025727272E0,-9.882357717E-1,1.081298259E1
5.981308470E-1,-5.879165173E0,-9.006584167E0,-9.355936646E-1,1.079622513E1
6.005358470E-1,-5.876772404E0,-8.992227554E0,-8.829515576E-1,1.077850703E1
6.029409000E-1,-5.888736725E0,-8.977870941E0,-8.207381964E-1,1.076814738E1
6.053459000E-1,-5.874379635E0,-8.977870941E0,-7.537391186E-1,1.075539982E1
6.077509000E-1,-5.833701611E0,-8.977870941E0,-6.939185858E-1,1.072920147E1
6.101559520E-1,-5.824130535E0,-8.994620323E0,-6.173482537E-1,1.073335037E1
6.125609520E-1,-5.793023586E0,-9.008976936E0,-5.790630579E-1,1.072642073E1
6.149659520E-1,-5.759523869E0,-9.025727272E0,-5.216353536E-1,1.071951358E1
6.173710040E-1,-5.723631859E0,-9.025727272E0,-4.522434771E-1,1.069711356E1
6.197760040E-1,-5.685346603E0,-9.032905579E0,-3.996013701E-1,1.068064747E1
6.221810040E-1,-5.637490273E0,-9.044869423E0,-3.302095234E-1,1.066302011E1
6.245860560E-1,-5.594419479E0,-9.052047729E0,-2.895315289E-1,1.064523020E1
6.269910560E-1,-5.546562672E0,-9.044869423E0,-2.464607358E-1,1.061295262E1
6.293960560E-1,-5.491528034E0,-9.059226990E0,-1.890329868E-1,1.059538613E1
6.318010560E-1,-5.450850010E0,-9.047262192E0,-1.268195957E-1,1.056318144E1
6.342061080E-1,-5.410171986E0,-9.052047729E0,-6.699903309E-2,1.054580570E1
6.366111080E-1,-5.374279499E0,-9.064012527E0,-7.178467698E-3,1.053751654E1
6.390161080E-1,-5.316852093E0,-9.056833267E0,3.828516230E-2,1.050221933E1
6.414211600E-1,-5.283352375E0,-9.061619759E0,8.614161611E-2,1.048971808E1
6.438261600E-1,-5.245067120E0,-9.044869423E0,1.196411327E-1,1.045632373E1
6.462311600E-1,-5.201996326E0,-9.008976936E0,1.555334777E-1,1.040416368E1
6.486362120E-1,-5.132604599E0,-8.999405861E0,1.842473447E-1,1.036179921E1
6.510412120E-1,-5.075176716E0,-9.013762474E0,1.914258152E-1,1.034610924E1
6.534462120E-1,-5.024927616E0,-8.994620323E0,2.057827413E-1,1.030511712E1
6.558512120E-1,-4.977071285E0,-9.004191399E0,2.153540403E-1,1.029043627E1
6.582562640E-1,-4.948357105E0,-8.997013092E0,2.392822653E-1,1.027081976E1
6.606612640E-1,-4.929214478E0,-8.994620323E0,2.368894368E-1,1.025945743E1
6.630662640E-1,-4.914857864E0,-8.985049248E0,2.416750938E-1,1.024428351E1
6.654713160E-1,-4.890929699E0,-8.997013092E0,2.464607358E-1,1.024344575E1
6.678763160E-1,-4.878965378E0,-9.016156197E0,2.249253243E-1,1.025407076E1
6.702813160E-1,-4.864608288E0,-9.011369705E0,2.009970993E-1,1.024253863E1
6.726863680E-1,-4.847858906E0,-9.011369705E0,2.033899277E-1,1.023464154E1
6.750913680E-1,-4.811966419E0,-9.018548965E0,1.818545163E-1,1.022361567E1
6.774963680E-1,-4.766502857E0,-9.030512810E0,1.411765367E-1,1.021223002E1
6.799014200E-1,-4.699503899E0,-9.025727272E0,1.052841991E-1,1.017645196E1
6.823064200E-1,-4.658825874E0,-9.025727272E0,6.221338734E-2,1.015737574E1
6.847114200E-1,-4.601397991E0,-9.016156197E0,3.349951655E-2,1.012250257E1
6.871164720E-1,-4.551148891E0,-9.018548965E0,4.785645287E-3,1.010184164E1
6.895214720E-1,-4.486542225E0,-9.008976936E0,-3.110669367E-2,1.006437749E1
6.919264720E-1,-4.400400639E0,-9.004191399E0,-5.264209956E-2,1.002206365E1
6.943314720E-1,-4.316651821E0,-9.008976936E0,-9.092725813E-2,9.990165972E0
6.967365250E-1,-4.252045631E0,-8.985049248E0,-1.316052526E-1,9.941243483E0
6.991415250E-1,-4.194618225E0,-8.980263710E0,-1.483550072E-1,9.912717466E0
7.015465250E-1,-4.146761417E0,-8.977870941E0,-1.842473447E-1,9.890993073E0
7.039515770E-1,-4.101297855E0,-8.956335068E0,-2.153540403E-1,9.853068522E0
7.063565770E-1,-4.053441525E0,-8.930013657E0,-2.416750938E-1,9.809889854E0
7.087615770E-1,-4.000799656E0,-8.906085968E0,-2.703889608E-1,9.767183593E0
7.111666290E-1,-3.962514400E0,-8.891729355E0,-2.871387303E-1,9.738933204E0
7.135716290E-1,-3.919443607E0,-8.891729355E0,-3.086741269E-1,9.722148365E0
7.159766290E-1,-3.885943890E0,-8.872586250E0,-3.254238665E-1,9.691710240E0
7.183816290E-1,-3.862015724E0,-8.865407944E0,-3.182454109E-1,9.675324470E0
7.207866810E-1,-3.833301783E0,-8.867800713E0,-3.254238665E-1,9.666332951E0
7.231916810E-1,-3.830909014E0,-8.865407944E0,-3.349951804E-1,9.663516112E0
7.255966810E-1,-3.814159393E0,-8.877371788E0,-3.278166950E-1,9.667626675E0
7.280017330E-1,-3.795016766E0,-8.894122124E0,-3.302095234E-1,9.675567112E0
7.304067330E-1,-3.787838221E0,-8.910871506E0,-3.326023519E-1,9.688238937E0
7.328117330E-1,-3.787838221E0,-8.953942299E0,-3.302095234E-1,9.727786974E0
7.352167850E-1,-3.780659676E0,-8.992227554E0,-3.445664644E-1,9.760751509E0
7.376217850E-1,-3.754338741E0,-9.023334503E0,-3.637090325E-1,9.779974908E0
7.400267850E-1,-3.747160196E0,-9.071190834E0,-3.876372576E-1,9.822320262E0
7.424317850E-1,-3.704089403E0,-9.109476089E0,-3.876372576E-1,9.841397034E0
7.448368370E-1,-3.689732552E0,-9.135796547E0,-4.067798555E-1,9.861154836E0
7.472418370E-1,-3.665804386E0,-9.169296265E0,-4.402793646E-1,9.884733770E0
7.496468370E-1,-3.675375462E0,-9.200403214E0,-4.594219327E-1,9.918007491E0
7.520518890E-1,-3.670589924E0,-9.226723671E0,-4.570291340E-1,9.940550071E0
7.544568890E-1,-3.661018610E0,-9.243474007E0,-4.570291340E-1,9.952574773E0
7.568618890E-1,-3.627519131E0,-9.262616158E0,-4.689932466E-1,9.958659940E0
7.592669410E-1,-3.615555048E0,-9.269794464E0,-4.833501875E-1,9.961674313E0
7.616719410E-1,-3.608376503E0,-9.293723106E0,-4.785645306E-1,9.981116880E0
7.640769410E-1,-3.610769272E0,-9.305686951E0,-4.785645306E-1,9.993122053E0
7.664819410E-1,-3.601198196E0,-9.336793900E0,-4.666004181E-1,1.001808688E1
7.688869930E-1,-3.574877024E0,-9.363115311E0,-4.713860750E-1,1.003343804E1
7.712919930E-1,-3.567698479E0,-9.384650230E0,-4.594219327E-1,1.005043287E1
7.736969930E-1,-3.560520172E0,-9.377471924E0,-4.546363056E-1,1.004096498E1
7.761020450E-1,-3.538984776E0,-9.387042999E0,-4.689932466E-1,1.004295495E1
7.785070450E-1,-3.507878065E0,-9.401400566E0,-4.666004181E-1,1.004535998E1
7.809120450E-1,-3.498306751E0,-9.408578873E0,-4.713860750E-1,1.004896569E1
7.833170970E-1,-3.493520975E0,-9.408578873E0,-4.737788737E-1,1.004741318E1
7.857220970E-1,-3.510270834E0,-9.425328255E0,-4.642075896E-1,1.006848066E1
7.881270970E-1,-3.500699520E0,-9.461220741E0,-4.666004181E-1,1.009887672E1
7.905321500E-1,-3.515056372E0,-9.466006279E0,-4.570291340E-1,1.010790640E1
7.929371500E-1,-3.505485058E0,-9.482755661E0,-4.378865361E-1,1.011942810E1
7.953421500E-1,-3.503092289E0,-9.509077072E0,-4.307080805E-1,1.014296366E1
7.977471500E-1,-3.483949661E0,-9.542576790E0,-4.307080805E-1,1.016780146E1
8.001522020E-1,-3.505485058E0,-9.540184021E0,-4.043870270E-1,1.017187620E1
8.025572020E-1,-3.519842148E0,-9.554540634E0,-3.828516304E-1,1.018946077E1
8.049622020E-1,-3.536591768E0,-9.561718941E0,-3.684946895E-1,1.020145768E1
8.073672540E-1,-3.541377544E0,-9.561718941E0,-3.684946895E-1,1.020311778E1
8.097722540E-1,-3.553341627E0,-9.544969559E0,-3.637090325E-1,1.019141623E1
8.121772540E-1,-3.548556089E0,-9.535398483E0,-3.469592929E-1,1.018019918E1
8.145823060E-1,-3.560520172E0,-9.542576790E0,-3.302095234E-1,1.019054042E1
8.169873060E-1,-3.589233875E0,-9.537791252E0,-3.086741269E-1,1.019545690E1
8.193923060E-1,-3.601198196E0,-9.533005714E0,-2.799602449E-1,1.019437120E1
8.217973060E-1,-3.622733593E0,-9.516255379E0,-2.799602449E-1,1.018634836E1
8.242023580E-1,-3.646661758E0,-9.518648148E0,-2.799602449E-1,1.019711637E1
8.266073580E-1,-3.658625841E0,-9.533005714E0,-2.679961324E-1,1.021447810E1
8.290123580E-1,-3.670589924E0,-9.530612946E0,-2.632105052E-1,1.021641294E1
8.314174100E-1,-3.687339783E0,-9.518648148E0,-2.560320199E-1,1.021110619E1
8.338224100E-1,-3.689732552E0,-9.537791252E0,-2.727817893E-1,1.023024917E1
8.362274100E-1,-3.689732552E0,-9.540184021E0,-2.727817893E-1,1.023248002E1
8.386324620E-1,-3.687339783E0,-9.537791252E0,-2.751746178E-1,1.022945051E1
8.410374620E-1,-3.684946775E0,-9.511469841E0,-2.679961324E-1,1.020385776E1
8.434424620E-1,-3.689732552E0,-9.497113228E0,-2.727817893E-1,1.019233515E1
8.458474620E-1,-3.730410576E0,-9.492327690E0,-3.062812984E-1,1.020362956E1
8.482525140E-1,-3.773481369E0,-9.518648148E0,-3.134597540E-1,1.024412423E1
8.506575140E-1,-3.842873096E0,-9.504291534E0,-3.230310678E-1,1.025687966E1
8.530625140E-1,-3.869194269E0,-9.473184586E0,-3.541377485E-1,1.023900894E1
8.554675660E-1,-3.857230186E0,-9.473184586E0,-3.780659735E-1,1.023534976E1
8.578725660E-1,-3.799802303E0,-9.432506561E0,-3.924229145E-1,1.017667300E1
8.602775660E-1,-3.754338741E0,-9.391828537E0,-4.259224236E-1,1.012338444E1
8.626826180E-1,-3.701696634E0,-9.320044518E0,-4.642075896E-1,1.003898782E1
8.650876180E-1,-3.670589924E0,-9.248259544E0,-5.240281820E-1,9.963841655E0
8.674926180E-1,-3.625126362E0,-9.174081802E0,-5.647061467E-1,9.880496500E0
8.698976180E-1,-3.610769272E0,-9.133403778E0,-6.005984545E-1,9.839585246E0
8.723026700E-1,-3.601198196E0,-9.104690552E0,-6.484549642E-1,9.812467189E0
8.747076700E-1,-3.591626883E0,-9.080761909E0,-6.556333899E-1,9.787230234E0
8.771126700E-1,-3.601198196E0,-9.071190834E0,-6.771687865E-1,9.783337322E0
8.795177220E-1,-3.610769272E0,-9.061619759E0,-6.891329288E-1,9.778829765E0
8.819227220E-1,-3.601198196E0,-9.061619759E0,-7.010970116E-1,9.776150475E0
8.843277220E-1,-3.594019651E0,-9.064012527E0,-6.987041831E-1,9.775555631E0
8.867327750E-1,-3.570091486E0,-9.061619759E0,-7.178468108E-1,9.765951562E0
8.891377750E-1,-3.572484255E0,-9.037691116E0,-7.226324677E-1,9.744983435E0
8.915427750E-1,-3.562912941E0,-9.028120041E0,-7.178468108E-1,9.732245586E0
8.939477750E-1,-3.565305710E0,-9.001798630E0,-6.915257573E-1,9.706801288E0
8.963528270E-1,-3.543770313E0,-8.992227554E0,-6.819544435E-1,9.689351180E0
8.987578270E-1,-3.529413462E0,-8.975478172E0,-6.891329288E-1,9.669067794E0
9.011628270E-1,-3.512663603E0,-8.965906143E0,-6.771687865E-1,9.653229310E0
9.035678790E-1,-3.512663603E0,-8.949156761E0,-6.675975323E-1,9.637006734E0
9.059728790E-1,-3.500699520E0,-8.953942299E0,-6.508477330E-1,9.635952604E0
9.083778790E-1,-3.512663603E0,-8.949156761E0,-6.580262184E-1,9.636348418E0
9.107829310E-1,-3.517449379E0,-8.937192917E0,-6.412764788E-1,9.625855956E0
9.131879310E-1,-3.543770313E0,-8.939585686E0,-6.317051649E-1,9.637092491E0
9.155929310E-1,-3.558127165E0,-8.934800148E0,-6.269195080E-1,9.637632006E0
9.179979310E-1,-3.562912941E0,-8.937192917E0,-6.245267391E-1,9.641462519E0
9.204029830E-1,-3.577269793E0,-8.946763992E0,-6.197410822E-1,9.655336561E0
9.228079830E-1,-3.577269793E0,-8.953942299E0,-6.125625968E-1,9.661530665E0
9.252129830E-1,-3.582055569E0,-8.951549530E0,-5.910272002E-1,9.659745040E0
9.276180350E-1,-3.589233875E0,-8.958727837E0,-5.790630579E-1,9.668335859E0
9.300230350E-1,-3.610769272E0,-8.953942299E0,-5.718846321E-1,9.671493652E0
9.324280350E-1,-3.610769272E0,-8.949156761E0,-5.551348329E-1,9.666086910E0
9.348330350E-1,-3.610769272E0,-8.949156761E0,-5.431707501E-1,9.665407179E0
9.372380870E-1,-3.625126362E0,-8.934800148E0,-5.335994363E-1,9.656962420E0
9.396430870E-1,-3.644268990E0,-8.920442581E0,-5.335994363E-1,9.650892221E0
9.420480870E-1,-3.672982693E0,-8.901300430E0,-5.240281820E-1,9.643575932E0
9.444531390E-1,-3.713660717E0,-8.886942863E0,-5.072783828E-1,9.645017405E0
9.468581390E-1,-3.737588882E0,-8.860622406E0,-4.953143001E-1,9.629409968E0
9.492631390E-1,-3.763910055E0,-8.865407944E0,-4.929214716E-1,9.643933248E0
9.516681910E-1,-3.795016766E0,-8.867800713E0,-4.857429862E-1,9.657949471E0
9.540731910E-1,-3.811766386E0,-8.865407944E0,-5.024927258E-1,9.663204434E0
9.564781910E-1,-3.814159393E0,-8.858229637E0,-5.383850932E-1,9.659498056E0
9.588832430E-1,-3.826123476E0,-8.860622406E0,-5.790630579E-1,9.668772637E0
9.612882430E-1,-3.826123476E0,-8.851051331E0,-6.053841114E-1,9.661615829E0
9.636932430E-1,-3.826123476E0,-8.841479301E0,-6.364908218E-1,9.654848402E0
9.660982430E-1,-3.804588079E0,-8.836693764E0,-6.604190469E-1,9.643557458E0
9.685032950E-1,-3.802195072E0,-8.824729919E0,-6.987041831E-1,9.634351719E0
9.709082950E-1,-3.799802303E0,-8.831908226E0,-7.417750359E-1,9.643201266E0
9.733132950E-1,-3.783052683E0,-8.848658562E0,-7.920243144E-1,9.655959220E0
9.757183470E-1,-3.780659676E0,-8.851051331E0,-8.303094506E-1,9.660430168E0
9.781233470E-1,-3.775874138E0,-8.870193481E0,-8.733802438E-1,9.679894160E0
9.805283470E-1,-3.766302824E0,-8.860622406E0,-9.164510965E-1,9.671377823E0
9.829334000E-1,-3.759124279E0,-8.870193481E0,-9.332008362E-1,9.678957152E0
9.853384000E-1,-3.737588882E0,-8.884550095E0,-9.810572863E-1,9.688512499E0
9.877434000E-1,-3.720839262E0,-8.906085968E0,-1.024128079E0,9.706278917E0
9.901484000E-1,-3.699303865E0,-8.927620888E0,-1.038485050E0,9.719347458E0
9.925534520E-1,-3.651447296E0,-8.944371223E0,-1.064806104E0,9.719498751E0
9.949584520E-1,-3.634697676E0,-8.951549530E0,-1.083948612E0,9.721944804E0
9.973634520E-1,-3.610769272E0,-8.951549530E0,-1.086341500E0,9.713291490E0
9.997685040E-1,-3.577269793E0,-8.973084450E0,-1.083948612E0,9.720496299E0
1.002173504E0,-3.553341627E0,-8.989834785E0,-1.091127157E0,9.727996950E0
1.004578504E0,-3.550948858E0,-8.987442017E0,-1.095912814E0,9.725449948E0
1.006983556E0,-3.522234917E0,-9.018548965E0,-1.103091240E0,9.744597197E0
1.009388556E0,-3.510270834E0,-9.028120041E0,-1.086341500E0,9.747260674E0
1.011793556E0,-3.491128206E0,-9.052047729E0,-1.060020447E0,9.759671490E0
1.014198556E0,-3.491128206E0,-9.064012527E0,-1.052842021E0,9.769993632E0
1.016603608E0,-3.474378586E0,-9.092725754E0,-1.036092162E0,9.788894481E0
1.019008608E0,-3.455235958E0,-9.121439934E0,-1.004985452E0,9.805575850E0
1.021413608E0,-3.457628727E0,-9.133403778E0,-9.810572863E-1,9.815127833E0
1.023818660E0,-3.467200041E0,-9.157332420E0,-9.475577474E-1,9.837483360E0
1.026223660E0,-3.457628727E0,-9.147761345E0,-9.140582681E-1,9.822028128E0
1.028628660E0,-3.448057413E0,-9.164510727E0,-8.829515576E-1,9.831427172E0
1.031033660E0,-3.467200041E0,-9.140582085E0,-8.709874153E-1,9.814801885E0
1.033438712E0,-3.488735437E0,-9.116654396E0,-8.422735929E-1,9.797657227E0
1.035843712E0,-3.491128206E0,-9.116654396E0,-8.063812256E-1,9.795489483E0
1.038248712E0,-3.500699520E0,-9.121439934E0,-7.657032609E-1,9.800095157E0
1.040653764E0,-3.538984776E0,-9.111868858E0,-7.465606928E-1,9.803464704E0
1.043058764E0,-3.570091486E0,-9.104690552E0,-7.154539824E-1,9.805754314E0
1.045463764E0,-3.603590965E0,-9.119047165E0,-6.891329288E-1,9.829435041E0
1.047868764E0,-3.629911900E0,-9.109476089E0,-6.699903607E-1,9.828921716E0
1.050273816E0,-3.651447296E0,-9.080761909E0,-6.484549642E-1,9.808863240E0
1.052678816E0,-3.668197155E0,-9.075976372E0,-6.293123364E-1,9.809436859E0
1.055083816E0,-3.684946775E0,-9.073583603E0,-6.173482537E-1,9.812740239E0
1.057488868E0,-3.682554007E0,-9.056833267E0,-6.269195080E-1,9.796961820E0
1.059893868E0,-3.699303865E0,-9.047262192E0,-6.269195080E-1,9.794428535E0
1.062298868E0,-3.701696634E0,-9.040083885E0,-6.221339107E-1,9.788397480E0
1.064703920E0,-3.720839262E0,-9.030512810E0,-6.173482537E-1,9.786517526E0
1.067108920E0,-3.737588882E0,-9.011369705E0,-6.029912829E-1,9.774351800E0
1.069513920E0,-3.763910055E0,-9.004191399E0,-5.982056856E-1,9.777542211E0
1.071918920E0,-3.766302824E0,-9.008976936E0,-5.958128572E-1,9.782724332E0
1.074323972E0,-3.771088600E0,-9.001798630E0,-5.790630579E-1,9.776952584E0
1.076728972E0,-3.785445452E0,-8.977870941E0,-5.599204898E-1,9.759368569E0
1.079133972E0,-3.814159393E0,-8.970691681E0,-5.479564071E-1,9.763266735E0
1.081539025E0,-3.845266104E0,-8.956335068E0,-5.431707501E-1,9.762020473E0
1.083944025E0,-3.842873096E0,-8.941978455E0,-5.216353536E-1,9.746730516E0
1.086349025E0,-3.830909014E0,-8.930013657E0,-5.048855543E-1,9.730155045E0
1.088754025E0,-3.866801500E0,-8.925228119E0,-4.761717021E-1,9.738510682E0
1.091159077E0,-3.895515203E0,-8.915657043E0,-4.881358147E-1,9.741778882E0
1.093564077E0,-3.897907972E0,-8.925228119E0,-4.833501875E-1,9.751256890E0
1.095969077E0,-3.909872293E0,-8.915657043E0,-4.905286431E-1,9.747648958E0
1.098374129E0,-3.914657831E0,-8.913264275E0,-4.881358147E-1,9.747261284E0
1.100779129E0,-3.888336897E0,-8.922835350E0,-4.977070987E-1,9.745966697E0
1.103184129E0,-3.876372576E0,-8.908478737E0,-4.929214716E-1,9.727807015E0
1.105589181E0,-3.878765583E0,-8.908478737E0,-4.857429862E-1,9.728399771E0
1.107994181E0,-3.893122435E0,-8.920442581E0,-4.857429862E-1,9.745083088E0
1.110399754E0,-3.869194269E0,-8.922835350E0,-4.737788737E-1,9.737151606E0
1.112804181E0,-3.833301783E0,-8.939585686E0,-4.785645306E-1,9.738553219E0
1.115209233E0,-3.802195072E0,-8.944371223E0,-4.833501875E-1,9.730986145E0
1.117614233E0,-3.814159393E0,-8.949156761E0,-4.857429862E-1,9.740182999E0
1.120019233E0,-3.795016766E0,-8.956335068E0,-4.809573591E-1,9.739066181E0
1.122424285E0,-3.761517286E0,-8.951549530E0,-4.689932466E-1,9.721070206E0
1.124829285E0,-3.739981890E0,-8.946763992E0,-4.642075896E-1,9.708117179E0
1.127234285E0,-3.720839262E0,-8.930013657E0,-4.666004181E-1,9.685427439E0
1.129639285E0,-3.713660717E0,-8.908478737E0,-4.618147612E-1,9.662584654E0
1.132044337E0,-3.720839262E0,-8.879764557E0,-4.594219327E-1,9.638772324E0
1.134449337E0,-3.739981890E0,-8.853444099E0,-4.546363056E-1,9.621727035E0
1.136854337E0,-3.744767427E0,-8.841479301E0,-4.618147612E-1,9.612924227E0
1.139259389E0,-3.737588882E0,-8.810373306E0,-4.522434771E-1,9.581063230E0
1.141664389E0,-3.761517286E0,-8.812766075E0,-4.570291340E-1,9.592848056E0
1.144069389E0,-3.792623997E0,-8.815158844E0,-4.737788737E-1,9.608094954E0
1.146474441E0,-3.790230989E0,-8.812766075E0,-4.929214716E-1,9.605918406E0
1.148879441E0,-3.795016766E0,-8.791230202E0,-4.953143001E-1,9.588181108E0
1.151284441E0,-3.809373617E0,-8.788837433E0,-5.192425251E-1,9.592945511E0
1.153689441E0,-3.818944931E0,-8.755337715E0,-5.359922647E-1,9.567004056E0
1.156094493E0,-3.828516245E0,-8.750552177E0,-5.383850932E-1,9.566585522E0
1.158499493E0,-3.840480328E0,-8.726624489E0,-5.479564071E-1,9.550053421E0
1.160904493E0,-3.840480328E0,-8.712266922E0,-5.623133183E-1,9.537771246E0
1.163309545E0,-3.835694790E0,-8.688339233E0,-5.551348329E-1,9.513567566E0
1.165714545E0,-3.847658873E0,-8.681160927E0,-5.431707501E-1,9.511154940E0
1.168119545E0,-3.845266104E0,-8.657232285E0,-5.527420044E-1,9.488902253E0
1.170524597E0,-3.835694790E0,-8.645268440E0,-5.527420044E-1,9.474109174E0
1.172929597E0,-3.830909014E0,-8.647661209E0,-5.503492355E-1,9.474217252E0
1.175334597E0,-3.809373617E0,-8.647661209E0,-5.599204898E-1,9.466091205E0
1.177739597E0,-3.809373617E0,-8.652446747E0,-5.575276613E-1,9.470322020E0
1.180144650E0,-3.775874138E0,-8.650053978E0,-5.407779217E-1,9.453734716E0
1.182549650E0,-3.749552965E0,-8.642875671E0,-5.335994363E-1,9.436269160E0
1.184954650E0,-3.706482172E0,-8.638090134E0,-5.288137794E-1,9.414576744E0
1.187359702E0,-3.653840065E0,-8.645268440E0,-5.288137794E-1,9.400577516E0
1.189764702E0,-3.629911900E0,-8.659625053E0,-5.144568682E-1,9.403724386E0
1.192169702E0,-3.613162279E0,-8.642875671E0,-5.072783828E-1,9.381448336E0
1.194574702E0,-3.589233875E0,-8.647661209E0,-4.953143001E-1,9.376032234E0
1.196979754E0,-3.572484255E0,-8.640482903E0,-4.929214716E-1,9.362882041E0
1.199384754E0,-3.550948858E0,-8.650053978E0,-4.737788737E-1,9.362539081E0
1.201789754E0,-3.524627686E0,-8.662017822E0,-4.666004181E-1,9.363293706E0
1.204194754E0,-3.469592810E0,-8.669196129E0,-4.546363056E-1,9.348782271E0
1.206599806E0,-3.460021496E0,-8.673981667E0,-4.259224236E-1,9.348321593E0
1.209004806E0,-3.433700562E0,-8.664410591E0,-3.852444589E-1,9.327953888E0
1.211409806E0,-3.404986620E0,-8.662017822E0,-3.565305769E-1,9.314053934E0
1.213814858E0,-3.378665686E0,-8.650053978E0,-3.254238665E-1,9.292185767E0
1.216219858E0,-3.385843992E0,-8.654839516E0,-3.182454109E-1,9.299003534E0
1.218624858E0,-3.385843992E0,-8.640482903E0,-2.991028428E-1,9.285006561E0
1.221029910E0,-3.393022537E0,-8.640482903E0,-2.632105052E-1,9.286540071E0
1.223434910E0,-3.412165165E0,-8.650053978E0,-2.536391914E-1,9.302184570E0
1.225839910E0,-3.400201082E0,-8.654839516E0,-2.225325108E-1,9.301458765E0
1.228244910E0,-3.407379389E0,-8.647661209E0,-2.057827413E-1,9.297022385E0
1.230649962E0,-3.414557934E0,-8.671588898E0,-1.962114573E-1,9.321703644E0
1.233054962E0,-3.395415306E0,-8.688339233E0,-1.818545163E-1,9.330013655E0
1.235459962E0,-3.404986620E0,-8.685946465E0,-1.866401732E-1,9.331368304E0
1.237865014E0,-3.388236761E0,-8.693124771E0,-1.627119333E-1,9.331508014E0
1.240270014E0,-3.388236761E0,-8.700303078E0,-1.603191197E-1,9.338154219E0
1.242675014E0,-3.376272678E0,-8.693124771E0,-1.555334777E-1,9.327048094E0
1.245080066E0,-3.369094372E0,-8.685946465E0,-1.387837082E-1,9.317495575E0
1.247485066E0,-3.345165968E0,-8.700303078E0,-1.220339537E-1,9.322033109E0
1.249890066E0,-3.321237803E0,-8.714659691E0,-1.172483116E-1,9.326824821E0
1.252295066E0,-3.314059258E0,-8.712266922E0,-1.196411327E-1,9.322065098E0
1.254700118E0,-3.275774240E0,-8.719446182E0,-1.124626622E-1,9.315153592E0
1.257105118E0,-3.273381472E0,-8.726624489E0,-8.853443712E-2,9.320774623E0
1.259510118E0,-3.242274761E0,-8.721838951E0,-8.374879509E-2,9.305365881E0
1.261915170E0,-3.213560820E0,-8.721838951E0,-1.052841991E-1,9.295619000E0
1.264320170E0,-3.196810961E0,-8.731410027E0,-1.052841991E-1,9.298828213E0
1.266725170E0,-3.187239647E0,-8.721838951E0,-1.028913707E-1,9.286525609E0
1.269130170E0,-3.175275564E0,-8.712266922E0,-1.124626622E-1,9.273543965E0
1.271535222E0,-3.170490026E0,-8.712266922E0,-1.268195957E-1,9.272091735E0
1.273940222E0,-3.170490026E0,-8.740981102E0,-1.244267747E-1,9.299045094E0
1.276345222E0,-3.168097258E0,-8.748159409E0,-1.148554832E-1,9.304854918E0
1.278750275E0,-3.158525944E0,-8.774480820E0,-1.124626622E-1,9.326330878E0
1.281155275E0,-3.180061340E0,-8.779266357E0,-1.148554832E-1,9.338174323E0
1.283560275E0,-3.189632654E0,-8.788837433E0,-1.076770201E-1,9.350348348E0
1.285965275E0,-3.203989506E0,-8.788837433E0,-1.172483116E-1,9.355370615E0
1.288370327E0,-3.223132133E0,-8.815158844E0,-1.052841991E-1,9.386516444E0
1.290775327E0,-3.259024382E0,-8.829515457E0,-1.028913707E-1,9.412341354E0
1.293180327E0,-3.273381472E0,-8.839086533E0,-1.004985496E-1,9.426270575E0
1.295585379E0,-3.302095175E0,-8.848658562E0,-9.092725813E-2,9.445150007E0
1.297990379E0,-3.326023579E0,-8.853444099E0,-9.332008660E-2,9.458044930E0
1.300395379E0,-3.345165968E0,-8.858229637E0,-1.004985496E-1,9.469343568E0
1.302800379E0,-3.364308596E0,-8.872586250E0,-1.004985496E-1,9.489544723E0
1.305205431E0,-3.371487141E0,-8.860622406E0,-9.092725813E-2,9.480813400E0
1.307610431E0,-3.376272678E0,-8.853444099E0,-1.028913707E-1,9.475931419E0
1.310015431E0,-3.381058455E0,-8.872586250E0,-1.028913707E-1,9.495521559E0
1.312420483E0,-3.412165165E0,-8.913264275E0,-9.810572863E-2,9.544567873E0
1.314825483E0,-3.438486099E0,-8.930013657E0,-9.571290761E-2,9.569612924E0
1.317230483E0,-3.498306751E0,-8.975478172E0,-1.124626622E-1,9.633795015E0
1.319635535E0,-3.548556089E0,-9.030512810E0,-1.148554832E-1,9.703381045E0
1.322040535E0,-3.637090445E0,-9.085547447E0,-1.387837082E-1,9.787484878E0
1.324445535E0,-3.720839262E0,-9.162117958E0,-1.603191197E-1,9.890134100E0
1.326850535E0,-3.818944931E0,-9.265008926E0,-1.746760458E-1,1.002273628E1
1.329255587E0,-3.900300980E0,-9.370293617E0,-1.986042857E-1,1.015156115E1
1.331660587E0,-3.974478483E0,-9.446864128E0,-2.153540403E-1,1.025115108E1
1.334065587E0,-4.043870449E0,-9.561718941E0,-2.321037948E-1,1.038427800E1
1.336470587E0,-4.115654945E0,-9.693324089E0,-2.440679073E-1,1.053369435E1
1.338875639E0,-4.168296814E0,-9.827322960E0,-2.560320199E-1,1.067785218E1
1.341280639E0,-4.235296249E0,-9.954142570E0,-2.656033039E-1,1.082096270E1
1.343685691E0,-4.259224415E0,-1.009053326E1,-2.919243574E-1,1.095650829E1
1.346090691E0,-4.254438877E0,-1.022213840E1,-2.823530734E-1,1.107574318E1
1.348495691E0,-4.220939159E0,-1.032981491E1,-2.847459018E-1,1.116254826E1
1.350900691E0,-4.163511276E0,-1.043749237E1,-2.823530734E-1,1.124080942E1
1.353305691E0,-4.113262177E0,-1.054756260E1,-2.656033039E-1,1.132433431E1
1.355710743E0,-4.051048756E0,-1.060977554E1,-2.273181528E-1,1.135913758E1
1.358115743E0,-3.981656790E0,-1.068395329E1,-1.866401732E-1,1.140330141E1
1.360520743E0,-3.871587038E0,-1.072941685E1,-1.387837082E-1,1.140740255E1
1.362925795E0,-3.759124279E0,-1.076052380E1,-8.853443712E-2,1.139858439E1
1.365330795E0,-3.651447296E0,-1.077488041E1,-2.632104978E-2,1.137681010E1
1.367735795E0,-3.541377544E0,-1.078923702E1,3.589234129E-2,1.135562762E1
1.370140847E0,-3.436093330E0,-1.079641533E1,7.896314561E-2,1.133029375E1
1.372545847E0,-3.330809116E0,-1.080838013E1,1.363908947E-1,1.131079011E1
1.374950847E0,-3.261417150E0,-1.078923702E1,1.962114573E-1,1.127310855E1
1.377355847E0,-3.199203968E0,-1.076770210E1,2.273181528E-1,1.123521198E1
1.379760900E0,-3.136990547E0,-1.075095177E1,2.608176768E-1,1.120230777E1
1.382165900E0,-3.117847919E0,-1.073898792E1,2.871387303E-1,1.118612023E1
1.384570900E0,-3.101098061E0,-1.070788097E1,3.110669553E-1,1.115223237E1
1.386975952E0,-3.096312523E0,-1.069113159E1,3.182454109E-1,1.113502250E1
1.389380952E0,-3.096312523E0,-1.064327526E1,3.326023519E-1,1.108950332E1
1.391785952E0,-3.105883837E0,-1.060020447E1,3.445664644E-1,1.105122505E1
1.394191004E0,-3.136990547E0,-1.055474091E1,3.661018610E-1,1.101713646E1
1.396596004E0,-3.180061340E0,-1.049970531E1,3.804588020E-1,1.097731072E1
1.399001004E0,-3.211168051E0,-1.040159988E1,4.187439680E-1,1.089404548E1
1.401406004E0,-3.270988464E0,-1.032024384E1,4.450650215E-1,1.083535330E1
1.403811056E0,-3.326023579E0,-1.020778179E1,4.642075896E-1,1.074600999E1
1.406216056E0,-3.381058455E0,-1.013121128E1,5.120640397E-1,1.069276428E1
1.408621056E0,-3.445664644E0,-1.005464077E1,5.407779217E-1,1.064240793E1
1.411026056E0,-3.493520975E0,-9.975677490E0,5.790630579E-1,1.058556301E1
1.413431108E0,-3.529413462E0,-9.887143135E0,6.101697683E-1,1.051592440E1
1.415836108E0,-3.541377544E0,-9.822537422E0,6.269195080E-1,1.046024017E1
1.418241108E0,-3.560520172E0,-9.769894600E0,6.628118753E-1,1.041957120E1
1.420646160E0,-3.584448338E0,-9.714859962E0,6.915257573E-1,1.037810107E1
1.423051160E0,-3.596412420E0,-9.664610863E0,7.130611539E-1,1.033669878E1
1.425456160E0,-3.598805189E0,-9.604789734E0,7.154539824E-1,1.028179260E1
1.427861212E0,-3.617947817E0,-9.566504478E0,7.274180651E-1,1.025361845E1
1.430266212E0,-3.632304668E0,-9.530612946E0,7.178468108E-1,1.022455497E1
1.432671212E0,-3.637090445E0,-9.504291534E0,7.274180651E-1,1.020240763E1
1.435076212E0,-3.634697676E0,-9.468399048E0,7.417750359E-1,1.016916112E1
1.437481264E0,-3.656233072E0,-9.456435204E0,7.345965505E-1,1.016522696E1
1.439886264E0,-3.661018610E0,-9.473184586E0,7.369893789E-1,1.018270282E1
1.442291264E0,-3.641875982E0,-9.485149384E0,7.513462901E-1,1.018802438E1
1.444696264E0,-3.610769272E0,-9.492327690E0,7.728816867E-1,1.018524844E1
1.447101316E0,-3.570091486E0,-9.506684303E0,7.896314859E-1,1.018558381E1
1.449506316E0,-3.519842148E0,-9.518648148E0,8.063812256E-1,1.018057965E1
1.451911316E0,-3.445664644E0,-9.542576790E0,8.111668825E-1,1.017798449E1
1.454316368E0,-3.390629768E0,-9.578469276E0,8.255237937E-1,1.019435792E1
1.456721368E0,-3.321237803E0,-9.602396965E0,8.542376757E-1,1.019639005E1
1.459126368E0,-3.244667530E0,-9.616754532E0,8.470591903E-1,1.018466221E1
1.461531368E0,-3.187239647E0,-9.631111145E0,8.590233326E-1,1.018109619E1
1.463936420E0,-3.108276606E0,-9.635896683E0,8.638089895E-1,1.016159704E1
1.466341420E0,-3.043670416E0,-9.662218094E0,8.781659007E-1,1.016826256E1
1.468746420E0,-2.957528830E0,-9.657432556E0,8.685946465E-1,1.013742753E1
1.471151472E0,-2.876172781E0,-9.667003632E0,8.685946465E-1,1.012313122E1
1.473556472E0,-2.785245657E0,-9.669396400E0,8.518448472E-1,1.009853751E1
1.475961472E0,-2.694318295E0,-9.650253296E0,8.398807645E-1,1.005445868E1
1.478366525E0,-2.569891453E0,-9.650253296E0,8.255237937E-1,1.002063971E1
1.480771525E0,-2.462214470E0,-9.640682220E0,8.159525394E-1,9.983538066E0
1.483176525E0,-2.359323025E0,-9.621540070E0,8.063812256E-1,9.939350538E0
1.485581525E0,-2.268395901E0,-9.571290970E0,8.087740541E-1,9.869617331E0
1.487986577E0,-2.167897224E0,-9.544969559E0,8.039883971E-1,9.821029457E0
1.490391577E0,-2.057827473E0,-9.482755661E0,8.039883971E-1,9.736719477E0
1.492796577E0,-1.966900229E0,-9.418149948E0,8.135597110E-1,9.655678348E0
1.495201629E0,-1.923829436E0,-9.365508080E0,8.183453679E-1,9.596017425E0
1.497606629E0,-1.859223247E0,-9.329615593E0,8.159525394E-1,9.547995430E0
1.500011629E0,-1.816152334E0,-9.274580956E0,7.896314859E-1,9.483658528E0
1.502416629E0,-1.782652855E0,-9.209974289E0,7.920243144E-1,9.414285959E0
1.504821681E0,-1.773081541E0,-9.138189316E0,7.992027402E-1,9.342860758E0
1.507226681E0,-1.775474429E0,-9.071190834E0,7.944171429E-1,9.277387089E0
1.509631681E0,-1.813759565E0,-9.025727272E0,7.920243144E-1,9.240172026E0
1.512036733E0,-1.849651933E0,-8.985049248E0,7.992027402E-1,9.208205432E0
1.514441733E0,-1.875972986E0,-8.980263710E0,7.992027402E-1,9.208861817E0
1.516846733E0,-1.902294040E0,-8.968298912E0,7.752745152E-1,9.200552079E0
1.519251733E0,-1.933400750E0,-8.975478172E0,7.513462901E-1,9.212044731E0
1.521656785E0,-2.000399828E0,-8.970691681E0,7.274180651E-1,9.219763866E0
1.524061785E0,-2.029113531E0,-8.980263710E0,6.891329288E-1,9.232407174E0
1.526466785E0,-2.057827473E0,-8.982656479E0,6.269195080E-1,9.236655206E0
1.528871785E0,-2.091326952E0,-9.001798630E0,5.838487148E-1,9.259962544E0
1.531276837E0,-2.110469580E0,-9.006584167E0,5.288137794E-1,9.265650772E0
1.533681837E0,-2.139183521E0,-9.042476654E0,4.761717021E-1,9.304258684E0
1.536086837E0,-2.143969059E0,-9.064012527E0,4.378865361E-1,9.324412638E0
1.538491889E0,-2.134397745E0,-9.090332985E0,3.996013701E-1,9.346094840E0
1.540896889E0,-2.100898266E0,-9.121439934E0,3.684946895E-1,9.367509185E0
1.543301889E0,-2.088934183E0,-9.166903496E0,3.565305769E-1,9.408659829E0
1.545706941E0,-2.048256159E0,-9.198010445E0,3.302095234E-1,9.429092627E0
1.548111941E0,-2.009970903E0,-9.238688469E0,3.110669553E-1,9.459921263E0
1.550516941E0,-1.988435626E0,-9.284152031E0,2.967100143E-1,9.499336398E0
1.552921941E0,-1.940579176E0,-9.327222824E0,2.871387303E-1,9.531284373E0
1.555326993E0,-1.923829436E0,-9.377471924E0,2.775674164E-1,9.576802340E0
1.557731993E0,-1.890329838E0,-9.406186104E0,2.632105052E-1,9.597862454E0
1.560136993E0,-1.885544300E0,-9.475577354E0,2.632105052E-1,9.664943004E0
1.562542045E0,-1.892722726E0,-9.542576790E0,2.392822653E-1,9.731414445E0
1.564947045E0,-1.890329838E0,-9.616754532E0,2.273181528E-1,9.803417168E0
1.567352045E0,-1.897508383E0,-9.669396400E0,2.153540403E-1,9.856172795E0
1.569757045E0,-1.892722726E0,-9.745966911E0,2.057827413E-1,9.930187153E0
1.572162097E0,-1.911865234E0,-9.791430473E0,1.914258152E-1,9.978175346E0
1.574567097E0,-1.935793519E0,-9.841679573E0,1.842473447E-1,1.003194400E1
1.576972097E0,-1.954936147E0,-9.882357597E0,1.842473447E-1,1.007555031E1
1.579377150E0,-1.957328916E0,-9.913464546E0,1.842473447E-1,1.010652576E1
1.581782150E0,-1.995614052E0,-9.944570541E0,1.842473447E-1,1.014450126E1
1.584187150E0,-2.033899307E0,-9.966106415E0,2.009970993E-1,1.017351578E1
1.586592150E0,-2.048256159E0,-9.994820595E0,2.153540403E-1,1.020481109E1
1.588997202E0,-2.096112728E0,-1.000678444E1,2.344966233E-1,1.022665204E1
1.591402202E0,-2.165504456E0,-1.003310490E1,2.560320199E-1,1.026733441E1
1.593807202E0,-2.232503414E0,-1.004506969E1,2.751746178E-1,1.029384368E1
1.596212254E0,-2.273181438E0,-1.005224800E1,3.110669553E-1,1.031076168E1
1.598617254E0,-2.330609322E0,-1.005942631E1,3.493520916E-1,1.033178805E1
1.601022254E0,-2.395215511E0,-1.004506969E1,3.708875179E-1,1.033334602E1
1.603427254E0,-2.435893536E0,-1.001635551E1,3.876372576E-1,1.031558131E1
1.605832306E0,-2.486142635E0,-9.982855797E0,4.331009090E-1,1.029688746E1
1.608237306E0,-2.553141832E0,-9.944570541E0,4.666004181E-1,1.027768128E1
1.610642306E0,-2.620140791E0,-9.908679008E0,5.072783828E-1,1.026179267E1
1.613047358E0,-2.660818815E0,-9.868000984E0,5.383850932E-1,1.023461082E1
1.615452358E0,-2.699103832E0,-9.844072342E0,5.694918036E-1,1.022326967E1
1.617857358E0,-2.739781857E0,-9.801001549E0,6.029912829E-1,1.019458849E1
1.620262358E0,-2.785245657E0,-9.774680138E0,6.340979934E-1,1.018351832E1
1.622667410E0,-2.811566591E0,-9.714859962E0,6.532405615E-1,1.013460083E1
1.625072410E0,-2.864208698E0,-9.688538551E0,6.939185858E-1,1.012684520E1
1.627477410E0,-2.909672260E0,-9.671789169E0,7.130611539E-1,1.012512492E1
1.629882462E0,-2.947957516E0,-9.657432556E0,7.417750359E-1,1.012455862E1
1.632287462E0,-2.959921598E0,-9.621540070E0,7.609176040E-1,1.009525457E1
1.634692462E0,-3.017349243E0,-9.614361763E0,7.848458290E-1,1.010724154E1
1.637097462E0,-3.043670416E0,-9.611968994E0,7.944171429E-1,1.011360352E1
1.639502514E0,-3.077169895E0,-9.590433121E0,8.039883971E-1,1.010404767E1
1.641907514E0,-3.101098061E0,-9.590433121E0,8.303094506E-1,1.011348755E1
1.644312514E0,-3.120240688E0,-9.592825890E0,8.638089895E-1,1.012444450E1
1.646717566E0,-3.134597778E0,-9.588040352E0,8.685946465E-1,1.012475568E1
1.649122566E0,-3.168097258E0,-9.566504478E0,8.757730722E-1,1.011542518E1
1.651527566E0,-3.168097258E0,-9.554540634E0,8.853443861E-1,1.010494541E1
1.653932566E0,-3.148954630E0,-9.528220177E0,8.973084688E-1,1.007512072E1
1.656337618E0,-3.153740168E0,-9.501898766E0,9.044869542E-1,1.005237553E1
1.658742618E0,-3.127419233E0,-9.506684303E0,9.092726111E-1,1.004910813E1
1.661147618E0,-3.113062143E0,-9.485149384E0,9.379864931E-1,1.002691545E1
1.663552670E0,-3.091526747E0,-9.454042435E0,9.547362328E-1,9.992395972E0
1.665957670E0,-3.079562664E0,-9.432506561E0,9.571290612E-1,9.968549657E0
1.668362670E0,-3.069991350E0,-9.420542717E0,9.762716293E-1,9.956132696E0
1.670767670E0,-3.041277647E0,-9.410971642E0,9.978070259E-1,9.940391130E0
1.673172722E0,-3.017349243E0,-9.387042999E0,1.007378340E0,9.911396665E0
1.675577722E0,-3.026920557E0,-9.367900848E0,1.028913736E0,9.898407844E0
1.677982722E0,-3.019742250E0,-9.353543282E0,1.064806104E0,9.886426413E0
1.680387775E0,-2.991028309E0,-9.353543282E0,1.103091240E0,9.881894178E0
1.682792775E0,-3.000599623E0,-9.353543282E0,1.141376376E0,9.889141017E0
1.685197775E0,-2.988635540E0,-9.355937004E0,1.174875975E0,9.891705271E0
1.687602775E0,-2.962314367E0,-9.358329773E0,1.220339537E0,9.891555547E0
1.690007827E0,-2.940778971E0,-9.348757744E0,1.256231904E0,9.880565313E0
1.692412827E0,-2.912065268E0,-9.336793900E0,1.296909928E0,9.865993098E0
1.694817827E0,-2.902493954E0,-9.336793900E0,1.328016520E0,9.867310644E0
1.697222879E0,-2.892922640E0,-9.358329773E0,1.356730461E0,9.888784308E0
1.699627879E0,-2.880958557E0,-9.358329773E0,1.373480201E0,9.887603664E0
1.702032879E0,-2.861815929E0,-9.363115311E0,1.399801254E0,9.890266037E0
1.704437879E0,-2.864208698E0,-9.370293617E0,1.416550994E0,9.900136901E0
1.706842931E0,-2.864208698E0,-9.370293617E0,1.452443361E0,9.905336221E0
1.709247931E0,-2.868994236E0,-9.363115311E0,1.466800332E0,9.902048246E0
1.711652931E0,-2.897708178E0,-9.363115311E0,1.490728498E0,9.913975613E0
1.714057983E0,-2.904886723E0,-9.346364975E0,1.502692580E0,9.902069991E0
1.716462983E0,-2.924029350E0,-9.327222824E0,1.507478237E0,9.890375316E0
1.718867983E0,-2.935993433E0,-9.320044518E0,1.517049551E0,9.888616010E0
1.721272983E0,-2.950350285E0,-9.308079720E0,1.517049551E0,9.881616983E0
1.723678035E0,-2.950350285E0,-9.286544800E0,1.536192179E0,9.864297620E0
1.726083035E0,-2.976671457E0,-9.257830620E0,1.533799291E0,9.844823057E0
1.728488035E0,-2.993421078E0,-9.219545364E0,1.517049551E0,9.811321308E0
1.730893087E0,-3.041277647E0,-9.186046600E0,1.495514154E0,9.791291256E0
1.733298087E0,-3.081955671E0,-9.157332420E0,1.471585870E0,9.773471890E0
1.735703087E0,-3.093919754E0,-9.140582085E0,1.440479279E0,9.756923739E0
1.738108087E0,-3.113062143E0,-9.109476089E0,1.406979680E0,9.728992875E0
1.740513139E0,-3.117847919E0,-9.056833267E0,1.356730461E0,9.674085074E0
1.742918139E0,-3.117847919E0,-9.035298347E0,1.316052437E0,9.648294455E0
1.745323139E0,-3.134597778E0,-9.011369705E0,1.263410330E0,9.624276225E0
1.747728191E0,-3.129812002E0,-8.968298912E0,1.208375454E0,9.575295284E0
1.750133191E0,-3.093919754E0,-8.953942299E0,1.148554921E0,9.542777402E0
1.752538191E0,-3.060420275E0,-8.927620888E0,1.091127157E0,9.500481327E0
1.754943191E0,-3.026920557E0,-8.920442581E0,1.028913736E0,9.476033315E0
1.757348243E0,-2.991028309E0,-8.913264275E0,9.858429432E-1,9.453275447E0
1.759753243E0,-2.959921598E0,-8.910871506E0,9.188438654E-1,9.434460287E0
1.762158243E0,-2.916850805E0,-8.918049812E0,8.614161611E-1,9.422402500E0
1.764563295E0,-2.840280533E0,-8.925228119E0,8.159525394E-1,9.401737554E0
1.766968295E0,-2.775674343E0,-8.932407379E0,7.585247755E-1,9.384435491E0
1.769373295E0,-2.732603550E0,-8.944371223E0,7.154539824E-1,9.379806669E0
1.771778295E0,-2.660818815E0,-8.951549530E0,6.675975323E-1,9.362472014E0
1.774183347E0,-2.620140791E0,-8.973084450E0,6.508477330E-1,9.370431424E0
1.776588347E0,-2.569891453E0,-8.987442017E0,5.910272002E-1,9.366310332E0
1.778993347E0,-2.519642353E0,-8.982656479E0,5.551348329E-1,9.345848794E0
1.781398347E0,-2.469393015E0,-9.013762474E0,5.359922647E-1,9.361255445E0
1.783803400E0,-2.423929453E0,-9.035298347E0,5.072783828E-1,9.368531453E0
1.786208400E0,-2.392822742E0,-9.052047729E0,4.809573591E-1,9.375312728E0
1.788613400E0,-2.347358942E0,-9.080761909E0,4.522434771E-1,9.390146699E0
1.791018452E0,-2.318645239E0,-9.111868858E0,4.283152521E-1,9.411998926E0
1.793423452E0,-2.297109842E0,-9.131011009E0,4.331009090E-1,9.425478878E0
1.795828452E0,-2.258824587E0,-9.166903496E0,4.187439680E-1,9.450383840E0
1.798233504E0,-2.242074728E0,-9.207581520E0,4.043870270E-1,9.485250940E0
1.800638504E0,-2.225325108E0,-9.217152596E0,3.876372576E-1,9.489901814E0
1.803043504E0,-2.230110645E0,-9.202795982E0,3.780659735E-1,9.476696749E0
1.805448504E0,-2.222932339E0,-9.200403214E0,3.804588020E-1,9.472781871E0
1.807853556E0,-2.225325108E0,-9.198010445E0,3.732803464E-1,9.470734195E0
1.810258556E0,-2.225325108E0,-9.209974289E0,3.804588020E-1,9.482639250E0
1.812663556E0,-2.263610125E0,-9.226723671E0,3.708875179E-1,9.507571617E0
1.815068608E0,-2.297109842E0,-9.229117393E0,3.876372576E-1,9.518591499E0
1.817473608E0,-2.313859463E0,-9.224330902E0,3.996013701E-1,9.518503425E0
1.819878608E0,-2.356930256E0,-9.224330902E0,4.259224236E-1,9.530205178E0
1.822283608E0,-2.380858421E0,-9.219545364E0,4.307080805E-1,9.531737145E0
1.824688660E0,-2.426322222E0,-9.205188751E0,4.354937077E-1,9.529543233E0
1.827093660E0,-2.457428932E0,-9.193224907E0,4.450650215E-1,9.526406669E0
1.829498660E0,-2.498106956E0,-9.174081802E0,4.642075896E-1,9.519443469E0
1.831903712E0,-2.522035122E0,-9.157332420E0,4.833501875E-1,9.510574410E0
1.834308712E0,-2.557927370E0,-9.142974854E0,5.144568682E-1,9.507978096E0
1.836713712E0,-2.560320139E0,-9.150154114E0,5.383850932E-1,9.516849165E0
1.839118712E0,-2.593819857E0,-9.140582085E0,5.647061467E-1,9.518247492E0
1.841523764E0,-2.622533560E0,-9.131011009E0,5.742774606E-1,9.517501717E0
1.843928764E0,-2.622533560E0,-9.150154114E0,5.814558864E-1,9.536303976E0
1.846333764E0,-2.653640270E0,-9.135796547E0,6.101697683E-1,9.532937238E0
1.848738764E0,-2.670390129E0,-9.140582085E0,6.317051649E-1,9.543598677E0
1.851143816E0,-2.682354212E0,-9.157332420E0,6.412764788E-1,9.563628846E0
1.853548816E0,-2.684746981E0,-9.145368576E0,6.388836503E-1,9.552685751E0
1.855953816E0,-2.696711063E0,-9.142974854E0,6.340979934E-1,9.553445452E0
1.858358868E0,-2.696711063E0,-9.131011009E0,6.364908218E-1,9.542155583E0
1.860763868E0,-2.725425005E0,-9.126225471E0,6.460621357E-1,9.546377800E0
1.863168868E0,-2.715853691E0,-9.140582085E0,6.460621357E-1,9.557379264E0
1.865573868E0,-2.713460922E0,-9.128618240E0,6.556333899E-1,9.545909925E0
1.867978920E0,-2.732603550E0,-9.135796547E0,6.819544435E-1,9.560071264E0
1.870383920E0,-2.739781857E0,-9.140582085E0,6.819544435E-1,9.566697828E0
1.872788920E0,-2.730210543E0,-9.138189316E0,6.819544435E-1,9.561674301E0
1.875193972E0,-2.744567633E0,-9.142974854E0,6.963114142E-1,9.571389149E0
1.877598972E0,-2.734996319E0,-9.128618240E0,6.891329288E-1,9.554411548E0
1.880003972E0,-2.739781857E0,-9.135796547E0,6.939185858E-1,9.562986258E0
1.882409025E0,-2.734996319E0,-9.138189316E0,7.058826685E-1,9.564778052E0
1.884814025E0,-2.739781857E0,-9.126225471E0,7.250252366E-1,9.556152865E0
1.887219025E0,-2.749353170E0,-9.131011009E0,7.250252366E-1,9.563470421E0
1.889624025E0,-2.763710260E0,-9.140582085E0,7.465606928E-1,9.578396949E0
1.892029077E0,-2.792423964E0,-9.152546883E0,7.513462901E-1,9.598503387E0
1.894434077E0,-2.801995277E0,-9.169296265E0,7.537391186E-1,9.617447384E0
1.896839077E0,-2.813959360E0,-9.193224907E0,7.561319470E-1,9.643935244E0
1.899244077E0,-2.825923443E0,-9.205188751E0,7.657032609E-1,9.659588228E0
1.901649129E0,-2.837887764E0,-9.231510162E0,7.680960894E-1,9.688362010E0
1.904054129E0,-2.849851847E0,-9.245866776E0,7.704889178E-1,9.705738568E0
1.906459129E0,-2.885744095E0,-9.267401695E0,7.633104324E-1,9.736267045E0
1.908864181E0,-2.897708178E0,-9.279366493E0,7.680960894E-1,9.751580733E0
1.911269181E0,-2.912065268E0,-9.291330338E0,7.704889178E-1,9.767425287E0
1.913674181E0,-2.919243574E0,-9.310472488E0,7.728816867E-1,9.787963379E0
1.916079181E0,-2.919243574E0,-9.312865257E0,7.728816867E-1,9.790239448E0
1.918484233E0,-2.933600664E0,-9.315258980E0,7.657032609E-1,9.796242351E0
1.920889233E0,-2.909672260E0,-9.322437286E0,7.609176040E-1,9.795561506E0
1.923294233E0,-2.914458036E0,-9.317651749E0,7.680960894E-1,9.792990930E0
1.925699285E0,-2.928814888E0,-9.322437286E0,7.633104324E-1,9.801450731E0
1.928104285E0,-2.928814888E0,-9.334401131E0,7.776673436E-1,9.813957796E0
1.930509285E0,-2.924029350E0,-9.303294182E0,7.752745152E-1,9.782754257E0
1.932914337E0,-2.924029350E0,-9.286544800E0,7.657032609E-1,9.766072058E0
1.935319337E0,-2.945564747E0,-9.267401695E0,7.657032609E-1,9.754352226E0
1.937724337E0,-2.959921598E0,-9.241081238E0,7.633104324E-1,9.733517408E0
1.940129337E0,-2.959921598E0,-9.248259544E0,7.633104324E-1,9.740332812E0
1.942534389E0,-2.981456995E0,-9.224330902E0,7.633104324E-1,9.724197099E0
1.944939389E0,-3.010170937E0,-9.205188751E0,7.585247755E-1,9.714524633E0
1.947344389E0,-3.017349243E0,-9.178867340E0,7.657032609E-1,9.692383793E0
1.949749389E0,-3.024527788E0,-9.166903496E0,7.609176040E-1,9.682917104E0
1.952154441E0,-3.046063185E0,-9.140582085E0,7.585247755E-1,9.664579743E0
1.954559441E0,-3.055634499E0,-9.119047165E0,7.609176040E-1,9.647430693E0
1.956964441E0,-3.089133978E0,-9.107083321E0,7.465606928E-1,9.645676141E0
1.959369493E0,-3.089133978E0,-9.073583603E0,7.250252366E-1,9.612404992E0
1.961774493E0,-3.086741209E0,-9.059226990E0,7.322037220E-1,9.598629446E0
1.964179493E0,-3.093919754E0,-9.037691116E0,7.298108935E-1,9.580439661E0
1.966584493E0,-3.108276606E0,-9.013762474E0,7.274180651E-1,9.562344610E0
1.968989545E0,-3.089133978E0,-8.997013092E0,7.010970116E-1,9.538371472E0
1.971394545E0,-3.077169895E0,-8.994620323E0,6.915257573E-1,9.531546422E0
1.973799545E0,-3.081955671E0,-8.987442017E0,6.723831892E-1,9.524949549E0
1.976204545E0,-3.065205812E0,-8.997013092E0,6.556333899E-1,9.527412366E0
1.978609597E0,-3.053241730E0,-9.028120041E0,6.460621357E-1,9.552310339E0
1.981014597E0,-3.055634499E0,-9.040083885E0,6.293123364E-1,9.563265805E0
1.983419597E0,-3.058027267E0,-9.056833267E0,6.029912829E-1,9.578170915E0
1.985824650E0,-3.050848961E0,-9.066405296E0,5.790630579E-1,9.583459626E0
1.988229650E0,-3.069991350E0,-9.087940216E0,5.623133183E-1,9.608938575E0
1.990634650E0,-3.089133978E0,-9.083154678E0,5.407779217E-1,9.609312588E0
1.993039702E0,-3.084348440E0,-9.085547447E0,5.264210105E-1,9.609240178E0
1.995444702E0,-3.086741209E0,-9.083154678E0,4.977070987E-1,9.606215829E0
1.997849702E0,-3.077169895E0,-9.099904060E0,4.618147612E-1,9.617198207E0
2.000254702E0,-3.091526747E0,-9.119047165E0,4.426721931E-1,9.639010193E0
2.002659754E0,-3.113062143E0,-9.128618240E0,4.019941986E-1,9.653208079E0
2.005064754E0,-3.134597778E0,-9.138189316E0,3.756731451E-1,9.668161020E0
2.007469754E0,-3.151347399E0,-9.131011009E0,3.445664644E-1,9.665664929E0
2.009874754E0,-3.163311481E0,-9.126225471E0,3.134597540E-1,9.663994407E0
2.012279806E0,-3.187239647E0,-9.159725189E0,2.823530734E-1,9.702514384E0
2.014684806E0,-3.215953588E0,-9.176474571E0,2.656033039E-1,9.727311456E0
2.017089806E0,-3.232703447E0,-9.176474571E0,2.440679073E-1,9.732298099E0
2.019494858E0,-3.249453068E0,-9.183652878E0,2.177468538E-1,9.744015554E0
2.021899858E0,-3.285345554E0,-9.200403214E0,2.033899277E-1,9.771503578E0
2.024304858E0,-3.314059258E0,-9.186046600E0,1.842473447E-1,9.767312219E0
2.026709910E0,-3.314059258E0,-9.186046600E0,1.698904037E-1,9.767051943E0
2.029114910E0,-3.316452265E0,-9.178867340E0,1.627119333E-1,9.760990546E0
2.031519910E0,-3.335594654E0,-9.188439369E0,1.603191197E-1,9.776467253E0
2.033924910E0,-3.349951744E0,-9.166903496E0,1.459621787E-1,9.760922157E0
2.036329962E0,-3.352344513E0,-9.162117958E0,1.627119333E-1,9.757514765E0
2.038734962E0,-3.352344513E0,-9.166903496E0,1.698904037E-1,9.762130719E0
2.041139962E0,-3.352344513E0,-9.181260109E0,1.770688742E-1,9.775740601E0
2.043544962E0,-3.352344513E0,-9.207581520E0,1.818545163E-1,9.800553160E0
2.045950014E0,-3.335594654E0,-9.214759827E0,2.081755698E-1,9.802108315E0
2.048355014E0,-3.311666489E0,-9.221938133E0,2.249253243E-1,9.801115715E0
2.050760014E0,-3.292523861E0,-9.212367058E0,2.488535494E-1,9.786232588E0
2.053165066E0,-3.280559778E0,-9.229117393E0,2.632105052E-1,9.798365174E0
2.055570066E0,-3.278167009E0,-9.217152596E0,2.823530734E-1,9.786828095E0
2.057975066E0,-3.259024382E0,-9.214759827E0,3.062812984E-1,9.778898037E0
2.060380066E0,-3.256631613E0,-9.226723671E0,3.493520916E-1,9.790818456E0
2.062785118E0,-3.235096216E0,-9.233902931E0,3.756731451E-1,9.791421816E0
2.065190118E0,-3.227917671E0,-9.233902931E0,4.163511395E-1,9.790697836E0
2.067595118E0,-3.237488985E0,-9.231510162E0,4.498506486E-1,9.793083294E0
2.070000170E0,-3.237488985E0,-9.243474007E0,5.048855543E-1,9.807041147E0
2.072405170E0,-3.230310678E0,-9.243474007E0,5.407779217E-1,9.806587559E0
2.074810170E0,-3.237488985E0,-9.267401695E0,5.742774606E-1,9.833405499E0
2.077215222E0,-3.230310678E0,-9.267401695E0,6.340979934E-1,9.834720206E0
2.079620222E0,-3.244667530E0,-9.286544800E0,6.963114142E-1,9.861674872E0
2.082025222E0,-3.249453068E0,-9.296115875E0,7.298108935E-1,9.874681744E0
2.084430222E0,-3.254238844E0,-9.296115875E0,7.704889178E-1,9.879346840E0
2.086835275E0,-3.256631613E0,-9.291330338E0,8.063812256E-1,9.878497840E0
2.089240275E0,-3.282952785E0,-9.308079720E0,8.470591903E-1,9.906343237E0
2.091645275E0,-3.287738323E0,-9.332008362E0,8.877372146E-1,9.933966011E0
2.094050275E0,-3.299702406E0,-9.351150513E0,9.044869542E-1,9.957416760E0
2.096455327E0,-3.323630571E0,-9.363115311E0,9.355936646E-1,9.979468122E0
2.098860327E0,-3.345165968E0,-9.396614075E0,9.427721500E-1,1.001874796E1
2.101265327E0,-3.345165968E0,-9.413364410E0,9.595218897E-1,1.003604739E1
2.103670379E0,-3.345165968E0,-9.422935486E0,9.643075466E-1,1.004548344E1
2.106075379E0,-3.357130051E0,-9.449256897E0,9.834501147E-1,1.007600874E1
2.108480379E0,-3.352344513E0,-9.473184586E0,9.906286001E-1,1.009756332E1
2.110885379E0,-3.357130051E0,-9.487542152E0,9.906286001E-1,1.011262198E1
2.113290431E0,-3.349951744E0,-9.494720459E0,1.009771109E0,1.011887004E1
2.115695431E0,-3.349951744E0,-9.513862610E0,1.004985452E0,1.013635803E1
2.118100431E0,-3.321237803E0,-9.547362328E0,1.014556766E0,1.015933430E1
2.120505483E0,-3.316452265E0,-9.549755096E0,1.016949654E0,1.016025908E1
2.122910483E0,-3.290131092E0,-9.564111710E0,1.021735311E0,1.016568436E1
2.125315483E0,-3.237488985E0,-9.580862045E0,1.026520967E0,1.016503801E1
2.127720483E0,-3.232703447E0,-9.595218658E0,1.026520967E0,1.017704957E1
2.130125535E0,-3.227917671E0,-9.602396965E0,1.026520967E0,1.018229961E1
2.132530535E0,-3.211168051E0,-9.621540070E0,1.024128079E0,1.019482574E1
2.134935535E0,-3.189632654E0,-9.635896683E0,1.016949654E0,1.020090427E1
2.137340587E0,-3.153740168E0,-9.662218094E0,1.004985452E0,1.021344855E1
2.139745587E0,-3.117847919E0,-9.674181938E0,1.002592683E0,1.021351868E1
2.142150587E0,-3.086741209E0,-9.683753014E0,9.762716293E-1,1.021059009E1
2.144555587E0,-3.067598581E0,-9.678967476E0,9.667003751E-1,1.019936675E1
2.146960639E0,-3.048455954E0,-9.647860527E0,9.714859724E-1,1.016455023E1
2.149365639E0,-3.024527788E0,-9.638289452E0,9.762716293E-1,1.014876831E1
2.151770639E0,-3.007778168E0,-9.635896683E0,9.690931439E-1,1.014082718E1
2.154175691E0,-2.998206854E0,-9.607182503E0,9.834501147E-1,1.011209049E1
2.156580691E0,-2.988635540E0,-9.595218658E0,9.858429432E-1,1.009812110E1
2.158985691E0,-2.976671457E0,-9.597611427E0,1.000199914E0,1.009827302E1
2.161390691E0,-2.964707375E0,-9.602396965E0,9.978070259E-1,1.009906610E1
2.163795743E0,-2.981456995E0,-9.588040352E0,1.016949654E0,1.009226388E1
2.166200743E0,-2.995813847E0,-9.580862045E0,1.014556766E0,1.008945705E1
2.168605743E0,-3.007778168E0,-9.588040352E0,1.007378340E0,1.009911176E1
2.171010795E0,-3.019742250E0,-9.583254814E0,1.009771109E0,1.009837877E1
2.173415795E0,-3.038884640E0,-9.583254814E0,1.007378340E0,1.010388063E1
2.175820795E0,-3.065205812E0,-9.580862045E0,9.978070259E-1,1.010861133E1
2.178225795E0,-3.072384357E0,-9.583254814E0,9.834501147E-1,1.011165133E1
2.180630847E0,-3.091526747E0,-9.556933403E0,9.786644578E-1,1.009209085E1
2.183035847E0,-3.103491068E0,-9.542576790E0,9.714859724E-1,1.008147874E1
2.185440847E0,-3.113062143E0,-9.542576790E0,9.619147182E-1,1.008351167E1
2.187845847E0,-3.146561861E0,-9.516255379E0,9.571290612E-1,1.006856812E1
2.190250900E0,-3.165704250E0,-9.518648148E0,9.284151793E-1,1.007414020E1
2.192655900E0,-3.189632654E0,-9.501898766E0,9.140582681E-1,1.006455857E1
2.195060900E0,-3.237488985E0,-9.485149384E0,9.020941257E-1,1.006296018E1
2.197465952E0,-3.249453068E0,-9.458827972E0,8.925228715E-1,1.004116372E1
2.199870952E0,-3.270988464E0,-9.454042435E0,8.685946465E-1,1.004155070E1
2.202275952E0,-3.278167009E0,-9.430113792E0,8.303094506E-1,1.001812552E1
2.204680952E0,-3.285345554E0,-9.410971642E0,8.039883971E-1,1.000031399E1
2.207086004E0,-3.299702406E0,-9.406186104E0,7.800601721E-1,9.998643251E0
2.209491004E0,-3.306880951E0,-9.387042999E0,7.322037220E-1,9.979386764E0
2.211896004E0,-3.354737282E0,-9.382257462E0,7.082754970E-1,9.989127664E0
2.214301056E0,-3.385843992E0,-9.408578873E0,6.628118753E-1,1.002120829E1
2.216706056E0,-3.469592810E0,-9.449256897E0,6.269195080E-1,1.008561145E1
2.219111056E0,-3.567698479E0,-9.518648148E0,5.886343718E-1,1.018231926E1
2.221516056E0,-3.663411379E0,-9.607182503E0,5.240281820E-1,1.029529718E1
2.223921108E0,-3.768695593E0,-9.748359680E0,4.570291340E-1,1.046147497E1
2.226326108E0,-3.888336897E0,-9.918250084E0,3.972085714E-1,1.066061083E1
2.228731108E0,-4.003192425E0,-1.008814049E1,3.254238665E-1,1.085827006E1
2.231136160E0,-4.122833252E0,-1.026520920E1,2.297109663E-1,1.106458499E1
2.233541160E0,-4.228117466E0,-1.044467068E1,1.435693651E-1,1.126892786E1
2.235946160E0,-4.280759811E0,-1.061934662E1,4.546362907E-2,1.144978140E1
2.238351160E0,-4.304687977E0,-1.077727318E1,-4.307080805E-2,1.160524928E1
2.240756212E0,-4.271188259E0,-1.089691448E1,-1.244267747E-1,1.170475444E1
2.243161212E0,-4.216153622E0,-1.101894855E1,-1.579262912E-1,1.179907282E1
2.245566212E0,-4.141975880E0,-1.110509014E1,-1.842473447E-1,1.185381535E1
2.247971264E0,-4.015156269E0,-1.119362450E1,-1.914258152E-1,1.189350046E1
2.250376264E0,-3.869194269E0,-1.124148083E1,-1.698904037E-1,1.188992928E1
2.252781264E0,-3.696911097E0,-1.123908806E1,-1.172483116E-1,1.183207502E1
2.255186264E0,-3.517449379E0,-1.123430252E1,-4.785645381E-2,1.177218304E1
2.257591316E0,-3.357130051E0,-1.121994495E1,2.392822690E-2,1.171144993E1
2.259996316E0,-3.225524902E0,-1.116730309E1,1.052841991E-1,1.162427434E1
2.262401316E0,-3.105883837E0,-1.112662506E1,2.081755698E-1,1.155385809E1
2.264806368E0,-3.002992392E0,-1.108833981E1,2.847459018E-1,1.149131512E1
2.267211368E0,-2.938386202E0,-1.109312534E1,3.517449200E-1,1.148108304E1
2.269616368E0,-2.931207657E0,-1.106919765E1,4.187439680E-1,1.145837953E1
2.272021368E0,-2.940778971E0,-1.107637596E1,4.833501875E-1,1.147030570E1
2.274426420E0,-2.957528830E0,-1.108116150E1,5.431707501E-1,1.148190539E1
2.276831420E0,-3.014956474E0,-1.108355427E1,5.838487148E-1,1.150113112E1
2.279236420E0,-3.084348440E0,-1.108116150E1,6.149554253E-1,1.151883309E1
2.281641472E0,-3.163311481E0,-1.106919765E1,6.675975323E-1,1.153166782E1
2.284046472E0,-3.247060299E0,-1.105244732E1,7.417750359E-1,1.154340602E1
2.286451472E0,-3.335594654E0,-1.100937653E1,8.111668825E-1,1.153215309E1
2.288856472E0,-3.412165165E0,-1.093759251E1,8.901300430E-1,1.149200298E1
2.291261525E0,-3.450450182E0,-1.084666538E1,9.714859724E-1,1.142363959E1
2.293666525E0,-3.486342669E0,-1.077248764E1,1.062413216E0,1.137232593E1
2.296071525E0,-3.488735437E0,-1.068395329E1,1.155733347E0,1.129840043E1
2.298476525E0,-3.474378586E0,-1.055474091E1,1.234696507E0,1.118026554E1
2.300881577E0,-3.436093330E0,-1.043031406E1,1.320838094E0,1.106086805E1
2.303286577E0,-3.404986620E0,-1.029631615E1,1.392622828E0,1.093377604E1
2.305691577E0,-3.335594654E0,-1.015753174E1,1.464407444E0,1.079102089E1
2.308096629E0,-3.263810158E0,-1.003310490E1,1.519442320E0,1.065947257E1
2.310501629E0,-3.199203968E0,-9.889535904E0,1.562513232E0,1.051091214E1
2.312906629E0,-3.153740168E0,-9.760323524E0,1.605584025E0,1.038209480E1
2.315311681E0,-3.105883837E0,-9.650253296E0,1.622333765E0,1.026673609E1
2.317716681E0,-3.074777126E0,-9.535398483E0,1.629512191E0,1.015053637E1
2.320121681E0,-3.029313564E0,-9.437292099E0,1.631905079E0,1.004501553E1
2.322526681E0,-2.979064226E0,-9.343972206E0,1.636690736E0,9.943007433E0
2.324931733E0,-2.957528830E0,-9.260223389E0,1.600798368E0,9.851967793E0
2.327336733E0,-2.943171740E0,-9.221938133E0,1.572084427E0,9.807030757E0
2.329741733E0,-2.919243574E0,-9.159725189E0,1.512263894E0,9.731880120E0
2.332146733E0,-2.897708178E0,-9.123832703E0,1.459621787E0,9.683570190E0
2.334551785E0,-2.873780012E0,-9.075976372E0,1.418943882E0,9.625245992E0
2.336956785E0,-2.859423161E0,-9.061619759E0,1.351944804E0,9.597760583E0
2.339361785E0,-2.847458839E0,-9.047262192E0,1.287338614E0,9.571740475E0
2.341766837E0,-2.833101988E0,-9.044869423E0,1.215553880E0,9.555820268E0
2.344171837E0,-2.809173822E0,-9.032905579E0,1.136590719E0,9.527679635E0
2.346576837E0,-2.780459881E0,-9.040083885E0,1.079162955E0,9.519383724E0
2.348981837E0,-2.749353170E0,-9.025727272E0,1.016949654E0,9.489830464E0
2.351386889E0,-2.701496840E0,-9.023334503E0,9.427721500E-1,9.466122229E0
2.353791889E0,-2.658426046E0,-9.011369705E0,8.614161611E-1,9.434725794E0
2.356196889E0,-2.603390932E0,-8.992227554E0,7.848458290E-1,9.394348498E0
2.358601941E0,-2.548356056E0,-8.958727837E0,7.058826685E-1,9.340834726E0
2.361006941E0,-2.512463808E0,-8.934800148E0,6.340979934E-1,9.302967717E0
2.363411941E0,-2.467000246E0,-8.908478737E0,5.407779217E-1,9.259563941E0
2.365816941E0,-2.443071842E0,-8.870193481E0,4.594219327E-1,9.211948813E0
2.368221993E0,-2.400001049E0,-8.870193481E0,3.708875179E-1,9.196624108E0
2.370626993E0,-2.359323025E0,-8.829515457E0,2.751746178E-1,9.143438599E0
2.373031993E0,-2.321038008E0,-8.815158844E0,1.770688742E-1,9.117323964E0
2.375436993E0,-2.311466694E0,-8.815158844E0,8.135596663E-2,9.113535127E0
2.377842045E0,-2.309073925E0,-8.812766075E0,-3.110669367E-2,9.110303832E0
2.380247045E0,-2.297109842E0,-8.786444664E0,-1.363908947E-1,9.082781839E0
2.382652045E0,-2.316252232E0,-8.798408508E0,-2.177468538E-1,9.100792843E0
2.385057097E0,-2.316252232E0,-8.791230202E0,-2.991028428E-1,9.096164872E0
2.387462097E0,-2.304288149E0,-8.784051895E0,-4.115654826E-1,9.090582914E0
2.389867097E0,-2.309073925E0,-8.772088051E0,-4.857429862E-1,9.083903204E0
2.392272150E0,-2.306680918E0,-8.750552177E0,-5.694918036E-1,9.067373444E0
2.394677150E0,-2.309073925E0,-8.731410027E0,-6.652047038E-1,9.056038910E0
2.397082150E0,-2.311466694E0,-8.707481384E0,-7.465606928E-1,9.039937124E0
2.399487150E0,-2.301895380E0,-8.676374435E0,-8.207381964E-1,9.013978415E0
2.401892202E0,-2.325823545E0,-8.647661209E0,-8.949156404E-1,8.999576299E0
2.404297202E0,-2.359323025E0,-8.626125336E0,-9.547362328E-1,8.993773664E0
2.406702202E0,-2.376072884E0,-8.614161491E0,-1.007378340E0,8.992458600E0
2.409107254E0,-2.428714991E0,-8.606983185E0,-1.052842021E0,9.004848270E0
2.411512254E0,-2.474178553E0,-8.604590416E0,-1.098305583E0,9.020355364E0
2.413917254E0,-2.519642353E0,-8.609375954E0,-1.158126116E0,9.044954837E0
2.416322254E0,-2.560320139E0,-8.628518105E0,-1.208375454E0,9.081119707E0
2.418727306E0,-2.627319336E0,-8.628518105E0,-1.253839016E0,9.106384785E0
2.421132306E0,-2.682354212E0,-8.657232285E0,-1.294517040E0,9.155242723E0
2.423537306E0,-2.708675146E0,-8.690732002E0,-1.337587833E0,9.200808932E0
2.425942358E0,-2.778067112E0,-8.695517540E0,-1.361516118E0,9.229485809E0
2.428347358E0,-2.830709219E0,-8.743373871E0,-1.380658627E0,9.293315854E0
2.430752358E0,-2.890529871E0,-8.796015739E0,-1.411765337E0,9.365796132E0
2.433157358E0,-2.957528830E0,-8.846264839E0,-1.450050473E0,9.439598760E0
2.435562410E0,-3.024527788E0,-8.913264275E0,-1.481157184E0,9.528267155E0
2.437967410E0,-3.086741209E0,-8.975478172E0,-1.502692580E0,9.609644359E0
2.440372410E0,-3.134597778E0,-9.042476654E0,-1.521835208E0,9.690617610E0
2.442777462E0,-3.170490026E0,-9.121439934E0,-1.555334687E0,9.781193151E0
2.445182462E0,-3.201596737E0,-9.183652878E0,-1.564906001E0,9.850818882E0
2.447587462E0,-3.227917671E0,-9.253045082E0,-1.536192179E0,9.919585787E0
2.449992462E0,-3.225524902E0,-9.312865257E0,-1.521835208E0,9.972434637E0
2.452397514E0,-3.220739365E0,-9.382257462E0,-1.505085468E0,1.003320484E1
2.454802514E0,-3.211168051E0,-9.451649666E0,-1.478764415E0,1.009118555E1
2.457207514E0,-3.211168051E0,-9.549755096E0,-1.445264935E0,1.017832075E1
2.459612514E0,-3.180061340E0,-9.633503914E0,-1.416550994E0,1.024323213E1
2.462017566E0,-3.158525944E0,-9.707681656E0,-1.368694544E0,1.029993660E1
2.464422566E0,-3.158525944E0,-9.786644936E0,-1.320838094E0,1.036818781E1
2.466827566E0,-3.122633457E0,-9.858428955E0,-1.258624673E0,1.041746597E1
2.469232618E0,-3.098705292E0,-9.915857315E0,-1.215553880E0,1.045962581E1
2.471637618E0,-3.062813044E0,-9.987641335E0,-1.148554921E0,1.050966134E1
2.474042618E0,-3.024527788E0,-1.003310490E1,-1.091127157E0,1.053572592E1
2.476447618E0,-2.955136061E0,-1.008814049E1,-1.014556766E0,1.056090588E1
2.478852670E0,-2.902493954E0,-1.013121128E1,-9.451649189E-1,1.058107981E1
2.481257670E0,-2.840280533E0,-1.017667484E1,-8.757730722E-1,1.060183394E1
2.483662670E0,-2.782852650E0,-1.021496010E1,-8.015955687E-1,1.061754370E1
2.486067722E0,-2.711068153E0,-1.028674412E1,-7.106683254E-1,1.066170927E1
2.488472722E0,-2.670390129E0,-1.032024384E1,-6.149554253E-1,1.067785495E1
2.490877722E0,-2.612962246E0,-1.034656525E1,-5.312066078E-1,1.068462281E1
2.493282722E0,-2.557927370E0,-1.037527943E1,-4.331009090E-1,1.069471795E1
2.495687775E0,-2.512463808E0,-1.040159988E1,-3.326023519E-1,1.070590393E1
2.498092775E0,-2.450250387E0,-1.043509960E1,-2.344966233E-1,1.072147468E1
2.500497775E0,-2.404786825E0,-1.044227791E1,-1.387837082E-1,1.071650262E1
2.502902827E0,-2.354537487E0,-1.045663452E1,-5.264209956E-2,1.071857376E1
2.505307827E0,-2.285145521E0,-1.046142101E1,4.307080805E-2,1.070817794E1
2.507712827E0,-2.237289190E0,-1.046381378E1,1.507478207E-1,1.070138247E1
2.510117827E0,-2.194218397E0,-1.044467068E1,2.416750938E-1,1.067539914E1
2.512522879E0,-2.129612207E0,-1.042313576E1,3.206382394E-1,1.064329912E1
2.514927879E0,-2.072184324E0,-1.040159988E1,4.115654826E-1,1.061398201E1
2.517332879E0,-2.019542217E0,-1.034656525E1,5.144568682E-1,1.055436540E1
2.519737931E0,-2.000399828E0,-1.031545830E1,6.245267391E-1,1.052617276E1
2.522142931E0,-1.993221283E0,-1.026520920E1,7.082754970E-1,1.048089238E1
2.524547931E0,-1.983649969E0,-1.022692394E1,7.920243144E-1,1.044759030E1
2.526952931E0,-1.974078655E0,-1.018624592E1,8.422735929E-1,1.040989996E1
2.529357983E0,-1.964507341E0,-1.013599682E1,9.140582681E-1,1.036499991E1
2.531762983E0,-1.950150490E0,-1.007378292E1,9.858429432E-1,1.030805877E1
2.534167983E0,-1.969292998E0,-1.000199890E1,1.024128079E0,1.024533724E1
2.536573035E0,-1.950150490E0,-9.939785004E0,1.040877819E0,1.018262439E1
2.538978035E0,-1.974078655E0,-9.899106979E0,1.076770186E0,1.015129251E1
2.541383035E0,-1.969292998E0,-9.844072342E0,1.105484009E0,1.009980050E1
2.543788035E0,-1.986042738E0,-9.772287369E0,1.107876897E0,1.003341205E1
2.546193087E0,-1.983649969E0,-9.700503349E0,1.079162955E0,9.959880778E0
2.548598087E0,-2.014756680E0,-9.635896683E0,1.081555843E0,9.903510105E0
2.551003087E0,-2.026720762E0,-9.544969559E0,1.091127157E0,9.818584389E0
2.553408139E0,-2.007578135E0,-9.473184586E0,1.062413216E0,9.741679424E0
2.555813139E0,-1.995614052E0,-9.413364410E0,1.016949654E0,9.676160993E0
2.558218139E0,-2.005185366E0,-9.379864693E0,9.475577474E-1,9.638490322E0
2.560623139E0,-1.998006940E0,-9.322437286E0,8.805587292E-1,9.574719441E0
2.563028191E0,-1.969292998E0,-9.269794464E0,8.183453679E-1,9.511934265E0
2.565433191E0,-1.945364833E0,-9.250652313E0,7.369893789E-1,9.481675269E0
2.567838191E0,-1.916650891E0,-9.219545364E0,6.245267391E-1,9.437351377E0
2.570243243E0,-1.904686809E0,-9.193224907E0,5.288137794E-1,9.403343025E0
2.572648243E0,-1.895115495E0,-9.164510727E0,4.211367965E-1,9.367874668E0
2.575053243E0,-1.887937069E0,-9.154939651E0,3.182454109E-1,9.352994523E0
2.577458243E0,-1.871187329E0,-9.145368576E0,1.842473447E-1,9.336651193E0
2.579863295E0,-1.844866276E0,-9.133403778E0,6.699903309E-2,9.318105227E0
2.582268295E0,-1.813759565E0,-9.109476089E0,-4.067798331E-2,9.288376235E0
2.584673295E0,-1.756331801E0,-9.080761909E0,-1.244267747E-1,9.249887582E0
2.587078347E0,-1.715653777E0,-9.066405296E0,-2.297109663E-1,9.230164679E0
2.589483347E0,-1.670190215E0,-9.032905579E0,-3.302095234E-1,9.191950657E0
2.591888347E0,-1.629512191E0,-8.994620323E0,-4.115654826E-1,9.150294579E0
2.594293347E0,-1.579262972E0,-8.949156761E0,-4.905286431E-1,9.100664625E0
2.596698400E0,-1.519442320E0,-8.927620888E0,-5.790630579E-1,9.074493578E0
2.599103400E0,-1.485942841E0,-8.901300430E0,-6.675975323E-1,9.049135978E0
2.601508400E0,-1.481157184E0,-8.879764557E0,-7.561319470E-1,9.034145267E0
2.603913452E0,-1.478764415E0,-8.865407944E0,-8.255237937E-1,9.025723890E0
2.606318452E0,-1.478764415E0,-8.865407944E0,-9.068797827E-1,9.033528278E0
2.608723452E0,-1.483550072E0,-8.851051331E0,-9.834501147E-1,9.028244824E0
2.611128452E0,-1.483550072E0,-8.819944382E0,-1.040877819E0,9.004208258E0
2.613533504E0,-1.485942841E0,-8.812766075E0,-1.103091240E0,9.004980972E0
2.615938504E0,-1.502692580E0,-8.817551613E0,-1.174875975E0,9.021509574E0
2.618343504E0,-1.531406522E0,-8.810373306E0,-1.261017561E0,9.030949508E0
2.620748504E0,-1.526620865E0,-8.812766075E0,-1.323230863E0,9.041369204E0
2.623153556E0,-1.538584948E0,-8.805587769E0,-1.354337573E0,9.041009338E0
2.625558556E0,-1.548156261E0,-8.796015739E0,-1.395015597E0,9.039510452E0
2.627963556E0,-1.576870084E0,-8.793622971E0,-1.440479279E0,9.049270952E0
2.630368608E0,-1.607976794E0,-8.793622971E0,-1.481157184E0,9.061303489E0
2.632773608E0,-1.627119422E0,-8.788837433E0,-1.485942841E0,9.060861281E0
2.635178608E0,-1.651047587E0,-8.786444664E0,-1.493121386E0,9.064048733E0
2.637583608E0,-1.670190215E0,-8.793622971E0,-1.507478237E0,9.076884429E0
2.639988660E0,-1.691725612E0,-8.803194046E0,-1.507478237E0,9.090140351E0
2.642393660E0,-1.710868239E0,-8.817551613E0,-1.509871125E0,9.108018302E0
2.644798660E0,-1.727617979E0,-8.851051331E0,-1.497906923E0,9.141635449E0
2.647203712E0,-1.746760488E0,-8.872586250E0,-1.483550072E0,9.163780867E0
2.649608712E0,-1.785045743E0,-8.886942863E0,-1.478764415E0,9.184273839E0
2.652013712E0,-1.816152334E0,-8.913264275E0,-1.462014675E0,9.213152351E0
2.654418712E0,-1.830509305E0,-8.932407379E0,-1.430907965E0,9.229635069E0
2.656823764E0,-1.852044702E0,-8.939585686E0,-1.414158225E0,9.238295584E0
2.659228764E0,-1.878365755E0,-8.961120605E0,-1.414158225E0,9.264436513E0
2.661633764E0,-1.899901152E0,-8.987442017E0,-1.395015597E0,9.291383476E0
2.664038816E0,-1.897508383E0,-8.992227554E0,-1.356730461E0,9.289855327E0
2.666443816E0,-1.895115495E0,-8.997013092E0,-1.349551916E0,9.292954196E0
2.668848816E0,-1.928615093E0,-9.008976936E0,-1.316052437E0,9.306622139E0
2.671253816E0,-1.933400750E0,-9.040083885E0,-1.280160069E0,9.332736197E0
2.673658868E0,-1.938186288E0,-9.047262192E0,-1.232303619E0,9.334242951E0
2.676063868E0,-1.938186288E0,-9.078369141E0,-1.179661512E0,9.357614740E0
2.678468868E0,-1.940579176E0,-9.083154678E0,-1.136590719E0,9.357424053E0
2.680873920E0,-1.954936147E0,-9.111868858E0,-1.088734269E0,9.382604742E0
2.683278920E0,-1.978864312E0,-9.147761345E0,-1.040877819E0,9.417051992E0
2.685683920E0,-1.978864312E0,-9.188439369E0,-9.810572863E-1,9.450174359E0
2.688088972E0,-2.000399828E0,-9.193224907E0,-9.188438654E-1,9.453108362E0
2.690493972E0,-1.976471543E0,-9.207581520E0,-8.590233326E-1,9.456422066E0
2.692898972E0,-1.981257200E0,-9.241081238E0,-8.015955687E-1,9.485015445E0
2.695303972E0,-2.000399828E0,-9.255437851E0,-7.585247755E-1,9.499478360E0
2.697709025E0,-1.983649969E0,-9.274580956E0,-6.963114142E-1,9.509866912E0
2.700114025E0,-1.986042738E0,-9.262616158E0,-6.221339107E-1,9.493549096E0
2.702519025E0,-1.995614052E0,-9.274580956E0,-5.599204898E-1,9.503359317E0
2.704924025E0,-2.019542217E0,-9.296115875E0,-4.977070987E-1,9.525966276E0
2.707329077E0,-2.017149448E0,-9.320044518E0,-4.259224236E-1,9.545340833E0
2.709734077E0,-2.043470621E0,-9.322437286E0,-3.684946895E-1,9.550884644E0
2.712139077E0,-2.043470621E0,-9.351150513E0,-3.014956415E-1,9.576569726E0
2.714544129E0,-2.060220242E0,-9.367900848E0,-2.321037948E-1,9.594578986E0
2.716949129E0,-2.062613010E0,-9.387042999E0,-1.770688742E-1,9.612611616E0
2.719354129E0,-2.074577332E0,-9.394221306E0,-1.172483116E-1,9.621279136E0
2.721759129E0,-2.084148407E0,-9.415757179E0,-6.221338734E-2,9.643859619E0
2.724164181E0,-2.086541414E0,-9.427721024E0,-1.674975827E-2,9.655871754E0
2.726569181E0,-2.072184324E0,-9.430113792E0,2.871387079E-2,9.655144665E0
2.728974181E0,-2.067398787E0,-9.430113792E0,7.896314561E-2,9.654398949E0
2.731379233E0,-2.067398787E0,-9.422935486E0,1.483550072E-1,9.648205021E0
2.733784233E0,-2.055434704E0,-9.427721024E0,1.866401732E-1,9.650988036E0
2.736189233E0,-2.065006018E0,-9.408578873E0,2.297109663E-1,9.635267167E0
2.738594285E0,-2.076970100E0,-9.425328255E0,2.703889608E-1,9.655243534E0
2.740999285E0,-2.062613010E0,-9.430113792E0,3.110669553E-1,9.658063016E0
2.743404285E0,-2.065006018E0,-9.415757179E0,3.445664644E-1,9.645696406E0
2.745809285E0,-2.062613010E0,-9.399007797E0,3.804588020E-1,9.630185300E0
2.748214337E0,-2.067398787E0,-9.408578873E0,3.948157430E-1,9.641129271E0
2.750619337E0,-2.055434704E0,-9.387042999E0,4.211367965E-1,9.618666451E0
2.753024337E0,-2.055434704E0,-9.389435768E0,4.259224236E-1,9.621212282E0
2.755429389E0,-2.048256159E0,-9.379864693E0,4.354937077E-1,9.610768425E0
2.757834389E0,-2.041077614E0,-9.375079155E0,4.594219327E-1,9.605684541E0
2.760239389E0,-2.050648928E0,-9.353543282E0,4.689932466E-1,9.587173077E0
2.762644389E0,-2.048256159E0,-9.332008362E0,4.881358147E-1,9.566609114E0
2.765049441E0,-2.048256159E0,-9.308079720E0,4.929214716E-1,9.543514706E0
2.767454441E0,-2.053041935E0,-9.284152031E0,4.905286431E-1,9.521085992E0
2.769859441E0,-2.060220242E0,-9.267401695E0,4.905286431E-1,9.506306327E0
2.772264441E0,-2.074577332E0,-9.238688469E0,4.953143001E-1,9.481696683E0
2.774669493E0,-2.096112728E0,-9.229117393E0,4.857429862E-1,9.476615571E0
2.777074493E0,-2.103291035E0,-9.198010445E0,4.905286431E-1,9.448166365E0
2.779479493E0,-2.112862349E0,-9.171689034E0,4.977070987E-1,9.425061241E0
2.781884545E0,-2.127219439E0,-9.157332420E0,5.048855543E-1,9.414707060E0
2.784289545E0,-2.163111687E0,-9.138189316E0,5.024927258E-1,9.404150949E0
2.786694545E0,-2.187039852E0,-9.099904060E0,5.000999570E-1,9.372379484E0
2.789099545E0,-2.220539331E0,-9.068798065E0,4.953143001E-1,9.349825107E0
2.791504597E0,-2.249253273E0,-9.059226990E0,4.857429862E-1,9.346907520E0
2.793909597E0,-2.280359983E0,-9.020941734E0,4.666004181E-1,9.316391328E0
2.796314597E0,-2.323430777E0,-9.006584167E0,4.450650215E-1,9.312087404E0
2.798719650E0,-2.368894339E0,-8.975478172E0,4.163511395E-1,9.292158903E0
2.801124650E0,-2.392822742E0,-8.973084450E0,4.163511395E-1,9.295977275E0
2.803529650E0,-2.455035925E0,-8.956335068E0,4.043870270E-1,9.295518711E0
2.805934650E0,-2.488535643E0,-8.937192917E0,3.804588020E-1,9.284986579E0
2.808339702E0,-2.514856577E0,-8.927620888E0,3.254238665E-1,9.280776854E0
2.810744702E0,-2.538784742E0,-8.920442581E0,3.014956415E-1,9.279580995E0
2.813149702E0,-2.572284460E0,-8.903693199E0,2.751746178E-1,9.271899536E0
2.815554754E0,-2.574677229E0,-8.903693199E0,2.512463629E-1,9.271884391E0
2.817959754E0,-2.589034081E0,-8.910871506E0,2.249253243E-1,9.282096739E0
2.820364754E0,-2.612962246E0,-8.906085968E0,1.818545163E-1,9.283265052E0
2.822769754E0,-2.610569477E0,-8.891729355E0,1.387837082E-1,9.268073415E0
2.825174806E0,-2.632104874E0,-8.894122124E0,1.076770201E-1,9.276043271E0
2.827579806E0,-2.646461725E0,-8.901300430E0,6.460621208E-2,9.286607722E0
2.829984806E0,-2.663211584E0,-8.894122124E0,4.785645287E-3,9.284294653E0
2.832389858E0,-2.682354212E0,-8.886942863E0,-4.546362907E-2,9.283040694E0
2.834794858E0,-2.696711063E0,-8.879764557E0,-7.896314561E-2,9.280555173E0
2.837199858E0,-2.720639229E0,-8.874979019E0,-1.076770201E-1,9.283249687E0
2.839604858E0,-2.708675146E0,-8.884550095E0,-1.579262912E-1,9.289622820E0
2.842009910E0,-2.715853691E0,-8.901300430E0,-2.177468538E-1,9.308943244E0
2.844414910E0,-2.701496840E0,-8.886942863E0,-2.584248483E-1,9.292073075E0
2.846819910E0,-2.706282377E0,-8.886942863E0,-3.062812984E-1,9.294919365E0
2.849224962E0,-2.706282377E0,-8.886942863E0,-3.421736360E-1,9.296171285E0
2.851629962E0,-2.684746981E0,-8.894122124E0,-3.780659735E-1,9.298183080E0
2.854034962E0,-2.687139750E0,-8.896514893E0,-4.354937077E-1,9.303674115E0
2.856439962E0,-2.696711063E0,-8.901300430E0,-4.666004181E-1,9.312524677E0
2.858845014E0,-2.687139750E0,-8.894122124E0,-5.120640397E-1,9.305285485E0
2.861250014E0,-2.672782898E0,-8.882157326E0,-5.431707501E-1,9.291475752E0
2.863655014E0,-2.677568436E0,-8.863015175E0,-5.575276613E-1,9.275410924E0
2.866060066E0,-2.672782898E0,-8.879764557E0,-5.694918036E-1,9.290764657E0
2.868465066E0,-2.675175667E0,-8.870193481E0,-5.886343718E-1,9.283500831E0
2.870870066E0,-2.663211584E0,-8.877371788E0,-6.077769399E-1,9.288154747E0
2.873275066E0,-2.670390129E0,-8.877371788E0,-6.245267391E-1,9.291326437E0
2.875680118E0,-2.675175667E0,-8.879764557E0,-6.340979934E-1,9.295636810E0
2.878085118E0,-2.667997360E0,-8.889336586E0,-6.317051649E-1,9.302556975E0
2.880490118E0,-2.679961443E0,-8.901300430E0,-6.269195080E-1,9.317100985E0
2.882895170E0,-2.684746981E0,-8.910871506E0,-6.364908218E-1,9.328269824E0
2.885300170E0,-2.691925526E0,-8.925228119E0,-6.460621357E-1,9.344707395E0
2.887705170E0,-2.682354212E0,-8.922835350E0,-6.197410822E-1,9.337884868E0
2.890110222E0,-2.689532757E0,-8.946763992E0,-6.173482537E-1,9.362654071E0
2.892515222E0,-2.663211584E0,-8.965906143E0,-6.125625968E-1,9.373121243E0
2.894920222E0,-2.641676188E0,-8.973084450E0,-5.838487148E-1,9.372063644E0
2.897325222E0,-2.663211584E0,-8.982656479E0,-5.718846321E-1,9.386579004E0
2.899730275E0,-2.670390129E0,-8.989834785E0,-5.551348329E-1,9.394481763E0
2.902135275E0,-2.670390129E0,-9.004191399E0,-5.623133183E-1,9.408647217E0
2.904540275E0,-2.644068956E0,-8.994620323E0,-5.431707501E-1,9.390917414E0
2.906945275E0,-2.651247501E0,-9.008976936E0,-5.216353536E-1,9.405470865E0
2.909350327E0,-2.660818815E0,-9.035298347E0,-5.000999570E-1,9.432214637E0
2.911755327E0,-2.624926329E0,-9.025727272E0,-4.929214716E-1,9.412595954E0
2.914160327E0,-2.615355253E0,-9.037691116E0,-4.570291340E-1,9.419597626E0
2.916565379E0,-2.624926329E0,-9.047262192E0,-4.235295951E-1,9.429876389E0
2.918970379E0,-2.610569477E0,-9.083154678E0,-3.900300860E-1,9.458905612E0
2.921375379E0,-2.632104874E0,-9.102297783E0,-3.780659735E-1,9.482759876E0
2.923780379E0,-2.646461725E0,-9.114261627E0,-3.445664644E-1,9.496960078E0
2.926185431E0,-2.651247501E0,-9.142974854E0,-3.158525825E-1,9.524855135E0
2.928590431E0,-2.641676188E0,-9.166903496E0,-2.919243574E-1,9.544411591E0
2.930995431E0,-2.644068956E0,-9.190832138E0,-2.727817893E-1,9.567492145E0
2.933400483E0,-2.644068956E0,-9.217152596E0,-2.321037948E-1,9.591708648E0
2.935805483E0,-2.627319336E0,-9.221938133E0,-2.177468538E-1,9.591369220E0
2.938210483E0,-2.627319336E0,-9.241081238E0,-1.962114573E-1,9.609312581E0
2.940615483E0,-2.615355253E0,-9.250652313E0,-1.794617027E-1,9.614928904E0
2.943020535E0,-2.603390932E0,-9.274580956E0,-1.674975902E-1,9.634497999E0
2.945425535E0,-2.605783939E0,-9.272188187E0,-1.435693651E-1,9.632455340E0
2.947830535E0,-2.579462767E0,-9.310472488E0,-1.316052526E-1,9.662082905E0
2.950235587E0,-2.560320139E0,-9.315258980E0,-1.172483116E-1,9.661419991E0
2.952640587E0,-2.550748825E0,-9.332008362E0,-9.092725813E-2,9.674759294E0
2.955045587E0,-2.553141832E0,-9.351150513E0,-6.221338734E-2,9.693627785E0
2.957450587E0,-2.545963287E0,-9.367900848E0,-4.785645381E-2,9.707820847E0
2.959855639E0,-2.526820660E0,-9.375079155E0,-2.632104978E-2,9.709666555E0
2.962260639E0,-2.517249346E0,-9.391828537E0,2.392822644E-3,9.723322131E0
2.964665639E0,-2.495713949E0,-9.406186104E0,1.196411345E-2,9.731652906E0
2.967070691E0,-2.500499725E0,-9.401400566E0,2.153540403E-2,9.728272984E0
2.969475691E0,-2.502892494E0,-9.418149948E0,5.503492057E-2,9.745206418E0
2.971880691E0,-2.462214470E0,-9.410971642E0,6.699903309E-2,9.727968760E0
2.974285743E0,-2.467000246E0,-9.408578873E0,9.092725813E-2,9.727060932E0
2.976690743E0,-2.467000246E0,-9.406186104E0,1.076770201E-1,9.724917561E0
2.979095743E0,-2.486142635E0,-9.413364410E0,1.339980662E-1,9.737057574E0
2.981500743E0,-2.490928411E0,-9.427721024E0,1.459621787E-1,9.752330645E0
2.983905795E0,-2.490928411E0,-9.437292099E0,1.483550072E-1,9.761619523E0
2.986310795E0,-2.502892494E0,-9.442078590E0,1.627119333E-1,9.769533976E0
2.988715795E0,-2.533999205E0,-9.437292099E0,1.698904037E-1,9.773049518E0
2.991120847E0,-2.562713146E0,-9.446864128E0,1.962114573E-1,9.790262482E0
2.993525847E0,-2.574677229E0,-9.434899330E0,1.890329868E-1,9.781718748E0
2.995930847E0,-2.605783939E0,-9.420542717E0,2.009970993E-1,9.776355909E0
2.998335847E0,-2.636890650E0,-9.422935486E0,1.962114573E-1,9.786899632E0
3.000740900E0,-2.675175667E0,-9.422935486E0,2.081755698E-1,9.797531071E0
3.003145900E0,-2.672782898E0,-9.430113792E0,2.009970993E-1,9.803632714E0
3.005551316E0,-2.706282377E0,-9.406186104E0,2.057827413E-1,9.789925835E0
3.007955952E0,-2.739781857E0,-9.408578873E0,2.057827413E-1,9.801535980E0
3.010360952E0,-2.775674343E0,-9.379864693E0,2.009970993E-1,9.783998648E0
3.012765952E0,-2.787638426E0,-9.375079155E0,1.914258152E-1,9.782621377E0
3.015170952E0,-2.804388046E0,-9.365508080E0,1.794617027E-1,9.778013111E0
3.017576004E0,-2.830709219E0,-9.358329773E0,1.651047617E-1,9.778471783E0
3.019981004E0,-2.866601467E0,-9.355937004E0,1.363908947E-1,9.786192501E0
3.022386004E0,-2.909672260E0,-9.353543282E0,1.196411327E-1,9.796391100E0
3.024791004E0,-2.912065268E0,-9.346364975E0,9.810572863E-2,9.790009556E0
3.027196056E0,-2.952743053E0,-9.367900848E0,7.657032460E-2,9.822531286E0
3.029601056E0,-2.986242771E0,-9.389435768E0,4.785645381E-2,9.852991433E0
3.032006056E0,-2.979064226E0,-9.403793335E0,2.632104978E-2,9.864423224E0
3.034411108E0,-2.983849764E0,-9.420542717E0,0.000000000E0,9.881800671E0
3.036816108E0,-2.962314367E0,-9.439684868E0,-3.349951655E-2,9.893638311E0
3.039221108E0,-2.981456995E0,-9.442078590E0,-5.742774159E-2,9.901779227E0
3.041626108E0,-2.976671457E0,-9.439684868E0,-8.853443712E-2,9.898285797E0
3.044031160E0,-2.947957516E0,-9.446864128E0,-1.124626622E-1,9.896784489E0
3.046436160E0,-2.943171740E0,-9.446864128E0,-1.459621787E-1,9.895797426E0
3.048841160E0,-2.931207657E0,-9.451649666E0,-1.746760458E-1,9.897281013E0
3.051246212E0,-2.914458036E0,-9.451649666E0,-1.890329868E-1,9.892597259E0
3.053651212E0,-2.873780012E0,-9.454042435E0,-2.225325108E-1,9.883675968E0
3.056056212E0,-2.849851847E0,-9.468399048E0,-2.536391914E-1,9.891236976E0
3.058461264E0,-2.816352367E0,-9.458827972E0,-2.703889608E-1,9.872911296E0
3.060866264E0,-2.797209740E0,-9.466006279E0,-2.775674164E-1,9.874548135E0
3.063271264E0,-2.794816732E0,-9.454042435E0,-2.895315289E-1,9.862745431E0
3.065676264E0,-2.758924484E0,-9.427721024E0,-3.158525825E-1,9.828191637E0
3.068081316E0,-2.754138947E0,-9.410971642E0,-3.397808075E-1,9.811580891E0
3.070486316E0,-2.742174864E0,-9.391828537E0,-3.613162339E-1,9.790634079E0
3.072891316E0,-2.742174864E0,-9.358329773E0,-3.828516304E-1,9.759325514E0
3.075296368E0,-2.754138947E0,-9.329615593E0,-4.043870270E-1,9.736043206E0
3.077701368E0,-2.742174864E0,-9.305686951E0,-4.307080805E-1,9.710862066E0
3.080106368E0,-2.754138947E0,-9.269794464E0,-4.354937077E-1,9.680083962E0
3.082511368E0,-2.790031195E0,-9.262616158E0,-4.761717021E-1,9.685405084E0
3.084916420E0,-2.811566591E0,-9.219545364E0,-4.737788737E-1,9.650356980E0
3.087321420E0,-2.873780012E0,-9.195617676E0,-4.929214716E-1,9.646811265E0
3.089726420E0,-2.926422119E0,-9.183652878E0,-4.977070987E-1,9.651483770E0
3.092131472E0,-3.005385160E0,-9.166903496E0,-5.144568682E-1,9.660700054E0
3.094536472E0,-3.081955671E0,-9.174081802E0,-5.407779217E-1,9.693021636E0
3.096941472E0,-3.199203968E0,-9.207581520E0,-5.742774606E-1,9.764438442E0
3.099346472E0,-3.311666489E0,-9.265008926E0,-5.934200287E-1,9.856960620E0
3.101751525E0,-3.438486099E0,-9.312865257E0,-6.221339107E-1,9.946843547E0
3.104156525E0,-3.572484255E0,-9.396614075E0,-6.652047038E-1,1.007479514E1
3.106561525E0,-3.713660717E0,-9.506684303E0,-7.226324677E-1,1.023183855E1
3.108966577E0,-3.833301783E0,-9.611968994E0,-7.968099117E-1,1.037877914E1
3.111371577E0,-3.938585997E0,-9.741181374E0,-8.542376757E-1,1.054195410E1
3.113776577E0,-4.019941807E0,-9.844072342E0,-9.116654396E-1,1.067224561E1
3.116181577E0,-4.082155228E0,-9.944570541E0,-9.547362328E-1,1.079212657E1
3.118586629E0,-4.139583111E0,-1.004506969E1,-1.007378340E0,1.091120454E1
3.120991629E0,-4.151547432E0,-1.016949654E1,-1.048056364E0,1.103414827E1
3.123396629E0,-4.151547432E0,-1.028435135E1,-1.081555843E0,1.114329358E1
3.125801681E0,-4.132404804E0,-1.037527943E1,-1.107876897E0,1.122277077E1
3.128206681E0,-4.072584152E0,-1.046620655E1,-1.134197950E0,1.128777331E1
3.130611681E0,-4.012763500E0,-1.058106136E1,-1.153340459E0,1.137503076E1
3.133016681E0,-3.940979004E0,-1.068156052E1,-1.162911773E0,1.144462382E1
3.135421733E0,-3.864408493E0,-1.078205872E1,-1.167697430E0,1.151303437E1
3.137826733E0,-3.783052683E0,-1.085623646E1,-1.165304661E0,1.155540101E1
3.140231733E0,-3.692125320E0,-1.092562866E1,-1.165304661E0,1.159133668E1
3.142636785E0,-3.625126362E0,-1.102373409E1,-1.143769264E0,1.166072307E1
3.145041785E0,-3.562912941E0,-1.112662506E1,-1.119840980E0,1.173670216E1
3.147446785E0,-3.507878065E0,-1.120319557E1,-1.095912814E0,1.179058202E1
3.149851837E0,-3.483949661E0,-1.129890823E1,-1.074377418E0,1.187255319E1
3.152256837E0,-3.448057413E0,-1.137069321E1,-1.052842021E0,1.192854728E1
3.154661837E0,-3.409772158E0,-1.141615677E1,-1.016949654E0,1.195781619E1
3.157066837E0,-3.378665686E0,-1.148315620E1,-9.571290612E-1,1.200809536E1
3.159471889E0,-3.328416348E0,-1.153579807E1,-8.949156404E-1,1.203967884E1
3.161876889E0,-3.285345554E0,-1.157886887E1,-8.422735929E-1,1.206536881E1
3.164281889E0,-3.237488985E0,-1.158126163E1,-7.657032609E-1,1.204961649E1
3.166686941E0,-3.168097258E0,-1.157886887E1,-6.771687865E-1,1.202354365E1
3.169091941E0,-3.132204771E0,-1.155972576E1,-5.814558864E-1,1.199066543E1
3.171496941E0,-3.093919754E0,-1.151426220E1,-4.833501875E-1,1.193248511E1
3.173901941E0,-3.077169895E0,-1.145683479E1,-3.828516304E-1,1.186906118E1
3.176306993E0,-3.014956474E0,-1.138265705E1,-2.727817893E-1,1.177833834E1
3.178711993E0,-2.976671457E0,-1.130130100E1,-1.531406492E-1,1.168774698E1
3.181116993E0,-2.947957516E0,-1.121994495E1,-3.349951655E-2,1.160080775E1
3.183522045E0,-2.919243574E0,-1.109791183E1,8.853443712E-2,1.147577747E1
3.185927045E0,-2.902493954E0,-1.097348499E1,1.986042857E-1,1.135258947E1
3.188332045E0,-2.892922640E0,-1.086820030E1,3.038884699E-1,1.125073897E1
3.190737045E0,-2.897708178E0,-1.071984577E1,4.115654826E-1,1.111220915E1
3.193142097E0,-2.902493954E0,-1.057866859E1,5.216353536E-1,1.098202185E1
3.195547097E0,-2.904886723E0,-1.044706345E1,6.125625968E-1,1.086069678E1
3.197952097E0,-2.926422119E0,-1.030588722E1,7.202396393E-1,1.073750451E1
3.200357150E0,-2.947957516E0,-1.017906761E1,8.015955687E-1,1.062762562E1
3.202762150E0,-2.986242771E0,-1.006421185E1,8.829515576E-1,1.053497078E1
3.205167150E0,-3.014956474E0,-9.939785004E0,9.523434043E-1,1.043054392E1
3.207572150E0,-3.058027267E0,-9.846465111E0,1.012163997E0,1.035996534E1
3.209977202E0,-3.113062143E0,-9.726823807E0,1.067198873E0,1.026845513E1
3.212382202E0,-3.134597778E0,-9.609575272E0,1.093519926E0,1.016687887E1
3.214787202E0,-3.175275564E0,-9.511469841E0,1.119840980E0,1.008982048E1
3.217192254E0,-3.239881754E0,-9.420542717E0,1.136590719E0,1.002672914E1
3.219597254E0,-3.270988464E0,-9.336793900E0,1.143769264E0,9.959080981E0
3.222002254E0,-3.299702406E0,-9.231510162E0,1.146162033E0,9.870283849E0
3.224407254E0,-3.321237803E0,-9.142974854E0,1.167697430E0,9.797353061E0
3.226812306E0,-3.347558975E0,-9.083154678E0,1.165304661E0,9.750271020E0
3.229217306E0,-3.357130051E0,-9.013762474E0,1.155733347E0,9.687825127E0
3.231622306E0,-3.354737282E0,-8.951549530E0,1.127019525E0,9.625729802E0
3.234027358E0,-3.352344513E0,-8.865407944E0,1.088734269E0,9.540388569E0
3.236432358E0,-3.364308596E0,-8.798408508E0,1.038485050E0,9.476761884E0
3.238837358E0,-3.352344513E0,-8.724231720E0,1.009771109E0,9.400535651E0
3.241242358E0,-3.321237803E0,-8.664410591E0,9.762716293E-1,9.330366430E0
3.243647410E0,-3.292523861E0,-8.595019341E0,9.188438654E-1,9.249829452E0
3.246052410E0,-3.261417150E0,-8.549555779E0,8.566305041E-1,9.190514766E0
3.248457410E0,-3.230310678E0,-8.508877754E0,7.848458290E-1,9.135200638E0
3.250862462E0,-3.215953588E0,-8.446663857E0,7.130611539E-1,9.066253030E0
3.253267462E0,-3.180061340E0,-8.439485550E0,6.245267391E-1,9.040339602E0
3.255672462E0,-3.144168854E0,-8.439485550E0,5.072783828E-1,9.020423797E0
3.258077514E0,-3.127419233E0,-8.398807526E0,3.900300860E-1,8.970665660E0
3.260482514E0,-3.122633457E0,-8.386843681E0,2.919243574E-1,8.954060893E0
3.262887514E0,-3.096312523E0,-8.370093346E0,1.651047617E-1,8.925966247E0
3.265292514E0,-3.074777126E0,-8.384450912E0,1.435693540E-2,8.930480256E0
3.267697566E0,-3.012563705E0,-8.408378601E0,-8.374879509E-2,8.932154535E0
3.270102566E0,-2.962314367E0,-8.417949677E0,-1.938186288E-1,8.926071299E0
3.272507566E0,-2.909672260E0,-8.439485550E0,-3.062812984E-1,8.932240326E0
3.274912566E0,-2.847458839E0,-8.444271088E0,-4.354937077E-1,8.922073235E0
3.277317618E0,-2.794816732E0,-8.451449394E0,-5.383850932E-1,8.917839197E0
3.279722618E0,-2.742174864E0,-8.468199730E0,-6.364908218E-1,8.923847277E0
3.282127618E0,-2.701496840E0,-8.496912956E0,-7.441678643E-1,8.947033071E0
3.284532670E0,-2.648854733E0,-8.513663292E0,-8.422735929E-1,8.955909716E0
3.286937670E0,-2.605783939E0,-8.528019905E0,-9.284151793E-1,8.965444115E0
3.289342670E0,-2.545963287E0,-8.559126854E0,-1.000199914E0,8.985598557E0
3.291747722E0,-2.498106956E0,-8.592626572E0,-1.076770186E0,9.012946455E0
3.294152722E0,-2.478964329E0,-8.640482903E0,-1.155733347E0,9.063052935E0
3.296557722E0,-2.474178553E0,-8.681160927E0,-1.232303619E0,9.110581033E0
3.298962722E0,-2.438286304E0,-8.738588333E0,-1.296909928E0,9.164613550E0
3.301367775E0,-2.431107759E0,-8.791230202E0,-1.359123230E0,9.221888600E0
3.303772775E0,-2.428714991E0,-8.846264839E0,-1.411765337E0,9.281602204E0
3.306177775E0,-2.402393818E0,-8.884550095E0,-1.454836130E0,9.317900762E0
3.308582827E0,-2.385644197E0,-8.958727837E0,-1.502692580E0,9.391921405E0
3.310987827E0,-2.378465652E0,-9.020941734E0,-1.552941918E0,9.457595743E0
3.313392827E0,-2.340180635E0,-9.078369141E0,-1.586441398E0,9.508418794E0
3.315797827E0,-2.335394859E0,-9.138189316E0,-1.610369682E0,9.568378318E0
3.318202879E0,-2.318645239E0,-9.209974289E0,-1.651047587E0,9.639797730E0
3.320607879E0,-2.304288149E0,-9.274580956E0,-1.679761529E0,9.703050787E0
3.323012879E0,-2.297109842E0,-9.336793900E0,-1.670190215E0,9.759199214E0
3.325417931E0,-2.263610125E0,-9.401400566E0,-1.686939955E0,9.816110727E0
3.327822931E0,-2.251646042E0,-9.477970123E0,-1.698904037E0,9.888786704E0
3.330227931E0,-2.225325108E0,-9.568898201E0,-1.686939955E0,9.968031452E0
3.332632983E0,-2.182254314E0,-9.647860527E0,-1.679761529E0,1.003319717E1
3.335037983E0,-2.136790514E0,-9.729216576E0,-1.670190215E0,1.010015169E1
3.337442983E0,-2.079362869E0,-9.805787086E0,-1.624726534E0,1.015465148E1
3.339847983E0,-2.009970903E0,-9.887143135E0,-1.588834286E0,1.021371513E1
3.342253035E0,-1.952543259E0,-9.973284721E0,-1.548156261E0,1.027986484E1
3.344658035E0,-1.909472466E0,-1.002353382E1,-1.514656782E0,1.031559502E1
3.347063035E0,-1.864008784E0,-1.010728264E1,-1.445264935E0,1.037884781E1
3.349468087E0,-1.825723648E0,-1.017428207E1,-1.371087432E0,1.042732772E1
3.351873087E0,-1.763510346E0,-1.026281643E1,-1.296909928E0,1.049368120E1
3.354278087E0,-1.722832322E0,-1.031067276E1,-1.215553880E0,1.052405317E1
3.356683087E0,-1.663011789E0,-1.037527943E1,-1.129412293E0,1.056823559E1
3.359088139E0,-1.588834286E0,-1.043031406E1,-1.036092162E0,1.060138353E1
3.361493139E0,-1.555334687E0,-1.047577763E1,-9.547362328E-1,1.063355557E1
3.363898139E0,-1.512263894E0,-1.052363396E1,-8.614161611E-1,1.066657637E1
3.366303191E0,-1.481157184E0,-1.056191921E1,-7.561319470E-1,1.069203907E1
3.368708191E0,-1.469193101E0,-1.060020447E1,-6.460621357E-1,1.072101951E1
3.371113191E0,-1.462014675E0,-1.064088249E1,-5.407779217E-1,1.075445526E1
3.373518191E0,-1.428515077E0,-1.066241741E1,-4.331009090E-1,1.076640036E1
3.375923243E0,-1.442872047E0,-1.067198944E1,-3.230310678E-1,1.077393092E1
3.378328243E0,-1.438086390E0,-1.071266651E1,-1.986042857E-1,1.081058555E1
3.380733243E0,-1.445264935E0,-1.073420238E1,-7.896314561E-2,1.083134926E1
3.383138295E0,-1.476371527E0,-1.074138069E1,3.828516230E-2,1.084243505E1
3.385543295E0,-1.500299811E0,-1.076770210E1,1.651047617E-1,1.087297419E1
3.387948295E0,-1.524227977E0,-1.077488041E1,2.608176768E-1,1.088528110E1
3.390353295E0,-1.560120344E0,-1.077248764E1,3.780659735E-1,1.089143697E1
3.392758347E0,-1.588834286E0,-1.075813103E1,4.905286431E-1,1.088588058E1
3.395163347E0,-1.648654819E0,-1.075334454E1,5.982056856E-1,1.089542709E1
3.397568347E0,-1.694118381E0,-1.072463131E1,6.963114142E-1,1.087991744E1
3.399973400E0,-1.741974831E0,-1.069352436E1,7.872386575E-1,1.086304213E1
3.402378400E0,-1.794616938E0,-1.067916775E1,8.877372146E-1,1.086523590E1
3.404783400E0,-1.849651933E0,-1.066481018E1,9.714859724E-1,1.086752840E1
3.407188452E0,-1.914258122E0,-1.064088249E1,1.057627559E0,1.086330246E1
3.409593452E0,-1.959721804E0,-1.060020447E1,1.146162033E0,1.084059646E1
3.411998452E0,-2.014756680E0,-1.055713367E1,1.203589797E0,1.081484833E1
3.414403452E0,-2.079362869E0,-1.054038334E1,1.253839016E0,1.081644781E1
3.416808504E0,-2.132004976E0,-1.049970531E1,1.301695466E0,1.079275998E1
3.419213504E0,-2.179861546E0,-1.046381378E1,1.337587833E0,1.077183069E1
3.421618504E0,-2.232503414E0,-1.043509960E1,1.366301775E0,1.075835284E1
3.424023556E0,-2.275574446E0,-1.038485050E1,1.392622828E0,1.072206871E1
3.426428556E0,-2.333002090E0,-1.035135078E1,1.416550994E0,1.070513795E1
3.428833556E0,-2.361716032E0,-1.032502937E1,1.421336651E0,1.068663334E1
3.431238556E0,-2.392822742E0,-1.028195858E1,1.421336651E0,1.065197028E1
3.433643608E0,-2.423929453E0,-1.023888779E1,1.414158225E0,1.061650133E1
3.436048608E0,-2.459821701E0,-1.019820976E1,1.418943882E0,1.058619889E1
3.438453608E0,-2.474178553E0,-1.014317513E1,1.395015597E0,1.053335795E1
3.440858660E0,-2.467000246E0,-1.007617569E1,1.395015597E0,1.046716176E1
3.443263660E0,-2.495713949E0,-1.004267693E1,1.375872970E0,1.043920372E1
3.445668660E0,-2.507678032E0,-9.985248566E0,1.351944804E0,1.038370805E1
3.448073660E0,-2.517249346E0,-9.934999466E0,1.325623751E0,1.033431357E1
3.450478712E0,-2.524427891E0,-9.882357597E0,1.304088354E0,1.028272212E1
3.452883712E0,-2.531606436E0,-9.829715729E0,1.258624673E0,1.022821971E1
3.455288712E0,-2.526820660E0,-9.781859398E0,1.227517962E0,1.017724895E1
3.457693764E0,-2.526820660E0,-9.705288887E0,1.189232826E0,1.009909549E1
3.460098764E0,-2.529213428E0,-9.640682220E0,1.148554921E0,1.003288855E1
3.462503764E0,-2.531606436E0,-9.588040352E0,1.103091240E0,9.977793304E0
3.464908816E0,-2.517249346E0,-9.516255379E0,1.057627559E0,9.900213975E0
3.467313816E0,-2.519642353E0,-9.463613510E0,1.004985452E0,9.844723156E0
3.469718816E0,-2.502892494E0,-9.406186104E0,9.475577474E-1,9.779502725E0
3.472123816E0,-2.488535643E0,-9.355937004E0,8.997012973E-1,9.722953733E0
3.474528868E0,-2.495713949E0,-9.322437286E0,8.398807645E-1,9.687199016E0
3.476933868E0,-2.498106956E0,-9.274580956E0,7.800601721E-1,9.636746554E0
3.479338868E0,-2.476571321E0,-9.221938133E0,7.250252366E-1,9.576179303E0
3.481743920E0,-2.474178553E0,-9.181260109E0,6.819544435E-1,9.533213444E0
3.484148920E0,-2.467000246E0,-9.133403778E0,6.317051649E-1,9.481782860E0
3.486553920E0,-2.469393015E0,-9.071190834E0,5.838487148E-1,9.419409978E0
3.488958920E0,-2.464607239E0,-9.040083885E0,5.240281820E-1,9.384668935E0
3.491363972E0,-2.478964329E0,-9.011369705E0,4.618147612E-1,9.357527504E0
3.493768972E0,-2.476571321E0,-8.985049248E0,3.996013701E-1,9.328676045E0
3.496173972E0,-2.500499725E0,-8.965906143E0,3.589234054E-1,9.314977072E0
3.498579025E0,-2.524427891E0,-8.949156761E0,2.991028428E-1,9.303204041E0
3.500984025E0,-2.562713146E0,-8.927620888E0,2.392822653E-1,9.291241542E0
3.503389025E0,-2.591426849E0,-8.927620888E0,1.914258152E-1,9.298093981E0
3.505794025E0,-2.615355253E0,-8.920442581E0,1.316052526E-1,9.296865003E0
3.508199077E0,-2.653640270E0,-8.937192917E0,6.699903309E-2,9.323074213E0
3.510604077E0,-2.701496840E0,-8.925228119E0,7.178467698E-3,9.325118427E0
3.513009077E0,-2.746960402E0,-8.934800148E0,-5.264209956E-2,9.347685078E0
3.515414129E0,-2.749353170E0,-8.944371223E0,-1.124626622E-1,9.358064292E0
3.517819129E0,-2.751745939E0,-8.915657043E0,-1.746760458E-1,9.332285784E0
3.520224129E0,-2.766103029E0,-8.891729355E0,-2.392822653E-1,9.315118512E0
3.522629129E0,-2.773281336E0,-8.884550095E0,-3.014956415E-1,9.312208083E0
3.525034181E0,-2.763710260E0,-8.863015175E0,-3.589234054E-1,9.290853481E0
3.527439181E0,-2.749353170E0,-8.846264839E0,-4.211367965E-1,9.273224933E0
3.529844181E0,-2.773281336E0,-8.836693764E0,-4.570291340E-1,9.272924117E0
3.532249233E0,-2.758924484E0,-8.810373306E0,-5.192425251E-1,9.246834859E0
3.534654233E0,-2.773281336E0,-8.817551613E0,-5.742774606E-1,9.261214846E0
3.537059233E0,-2.737389088E0,-8.827122688E0,-6.197410822E-1,9.262584573E0
3.539464285E0,-2.727817774E0,-8.824729919E0,-6.699903607E-1,9.260979162E0
3.541869285E0,-2.737389088E0,-8.824729919E0,-7.106683254E-1,9.266833690E0
3.544274285E0,-2.727817774E0,-8.817551613E0,-7.465606928E-1,9.259997793E0
3.546679285E0,-2.694318295E0,-8.827122688E0,-7.992027402E-1,9.263701800E0
3.549084337E0,-2.648854733E0,-8.829515457E0,-8.327022791E-1,9.255818045E0
3.551489337E0,-2.608176708E0,-8.824729919E0,-8.422735929E-1,9.240555649E0
3.553894337E0,-2.579462767E0,-8.815158844E0,-8.638089895E-1,9.225335743E0
3.556299389E0,-2.548356056E0,-8.800801277E0,-8.662018180E-1,9.203180282E0
3.558704389E0,-2.522035122E0,-8.788837433E0,-8.709874153E-1,9.184930248E0
3.561109389E0,-2.507678032E0,-8.769695282E0,-8.709874153E-1,9.162675566E0
3.563514441E0,-2.500499725E0,-8.784051895E0,-8.733802438E-1,9.174685805E0
3.565919441E0,-2.495713949E0,-8.772088051E0,-8.662018180E-1,9.161245684E0
3.568324441E0,-2.498106956E0,-8.774480820E0,-8.638089895E-1,9.163963007E0
3.570729441E0,-2.531606436E0,-8.774480820E0,-8.566305041E-1,9.172478434E0
3.573134493E0,-2.541177750E0,-8.784051895E0,-8.374879360E-1,9.182512624E0
3.575539493E0,-2.577069998E0,-8.798408508E0,-8.231309652E-1,9.204934907E0
3.577944493E0,-2.600998163E0,-8.788837433E0,-7.968099117E-1,9.200204395E0
3.580349545E0,-2.612962246E0,-8.800801277E0,-7.657032609E-1,9.212381685E0
3.582754545E0,-2.624926329E0,-8.824729919E0,-7.465606928E-1,9.237069300E0
3.585159545E0,-2.641676188E0,-8.834300995E0,-7.106683254E-1,9.248155309E0
3.587564545E0,-2.627319336E0,-8.853444099E0,-6.747759581E-1,9.259676123E0
3.589969597E0,-2.617748022E0,-8.882157326E0,-6.317051649E-1,9.281399403E0
3.592374597E0,-2.624926329E0,-8.915657043E0,-5.886343718E-1,9.312661766E0
3.594779597E0,-2.581855536E0,-8.898907661E0,-5.407779217E-1,9.281647286E0
3.597184650E0,-2.565105915E0,-8.894122124E0,-4.977070987E-1,9.269999410E0
3.599589650E0,-2.548356056E0,-8.901300430E0,-4.354937077E-1,9.269138186E0
3.601994650E0,-2.519642353E0,-8.908478737E0,-3.661018610E-1,9.265183299E0
3.604399650E0,-2.481357098E0,-8.918049812E0,-2.895315289E-1,9.261348390E0
3.606804702E0,-2.457428932E0,-8.910871506E0,-2.153540403E-1,9.246024298E0
3.609209702E0,-2.438286304E0,-8.913264275E0,-1.459621787E-1,9.241905923E0
3.611614702E0,-2.438286304E0,-8.913264275E0,-7.657032460E-2,9.241070455E0
3.614019754E0,-2.421536446E0,-8.918049812E0,-2.153540403E-2,9.240991018E0
3.616424754E0,-2.409572363E0,-8.944371223E0,3.589234129E-2,9.263320345E0
3.618829754E0,-2.392822742E0,-8.958727837E0,1.028913707E-1,9.273348465E0
3.621234806E0,-2.376072884E0,-8.958727837E0,1.674975902E-1,9.269982861E0
3.623639806E0,-2.371287346E0,-8.982656479E0,2.273181528E-1,9.293158486E0
3.626044806E0,-2.376072884E0,-8.987442017E0,2.775674164E-1,9.300369886E0
3.628449806E0,-2.347358942E0,-9.016156197E0,3.397808075E-1,9.322908214E0
3.630854858E0,-2.323430777E0,-9.006584167E0,3.972085714E-1,9.309922856E0
3.633259858E0,-2.299502611E0,-9.006584167E0,4.546363056E-1,9.306608662E0
3.635664858E0,-2.292324066E0,-9.020941734E0,5.120640397E-1,9.321713843E0
3.638069910E0,-2.299502611E0,-9.032905579E0,5.694918036E-1,9.338384034E0
3.640474910E0,-2.294716835E0,-9.035298347E0,6.245267391E-1,9.343038865E0
3.642879910E0,-2.270788670E0,-9.044869423E0,6.747759581E-1,9.349944741E0
3.645284910E0,-2.251646042E0,-9.040083885E0,7.417750359E-1,9.345761432E0
3.647689962E0,-2.234896421E0,-9.052047729E0,7.896314859E-1,9.357235061E0
3.650094962E0,-2.215753794E0,-9.071190834E0,8.303094506E-1,9.374725692E0
3.652499962E0,-2.191825628E0,-9.056833267E0,8.733802438E-1,9.359119695E0
3.654905014E0,-2.177468538E0,-9.066405296E0,9.092726111E-1,9.368449760E0
3.657310014E0,-2.153540373E0,-9.059226990E0,9.451649189E-1,9.359522772E0
3.659715014E0,-2.141576290E0,-9.035298347E0,9.786644578E-1,9.337063208E0
3.662120014E0,-2.122433662E0,-9.025727272E0,1.019342422E0,9.327783039E0
3.664525066E0,-2.093719721E0,-9.018548965E0,1.038485050E0,9.316455276E0
3.666930066E0,-2.086541414E0,-9.008976936E0,1.052842021E0,9.307190598E0
3.669335066E0,-2.079362869E0,-9.004191399E0,1.069591761E0,9.302861883E0
3.671740118E0,-2.079362869E0,-9.011369705E0,1.100698471E0,9.313434975E0
3.674145118E0,-2.112862349E0,-8.987442017E0,1.105484009E0,9.298408262E0
3.676550118E0,-2.127219439E0,-8.982656479E0,1.105484009E0,9.297057322E0
3.678955170E0,-2.155933142E0,-8.968298912E0,1.117448211E0,9.291239077E0
3.681360170E0,-2.182254314E0,-8.975478172E0,1.129412293E0,9.305751686E0
3.683765170E0,-2.222932339E0,-8.958727837E0,1.141376376E0,9.300697429E0
3.686170170E0,-2.249253273E0,-8.953942299E0,1.122233868E0,9.300087732E0
3.688575222E0,-2.277967215E0,-8.949156761E0,1.098305583E0,9.299613783E0
3.690980222E0,-2.306680918E0,-8.939585686E0,1.079162955E0,9.295244041E0
3.693385222E0,-2.337787628E0,-8.922835350E0,1.045663476E0,9.283084282E0
3.695790275E0,-2.392822742E0,-8.908478737E0,1.024128079E0,9.280917649E0
3.698195275E0,-2.409572363E0,-8.908478737E0,9.930213690E-1,9.281870707E0
3.700600275E0,-2.428714991E0,-8.903693199E0,9.427721500E-1,9.277026917E0
3.703005327E0,-2.452643156E0,-8.906085968E0,8.781659007E-1,9.279278047E0
3.705410327E0,-2.474178553E0,-8.908478737E0,8.087740541E-1,9.280984236E0
3.707815327E0,-2.502892494E0,-8.906085968E0,7.561319470E-1,9.281948806E0
3.710220327E0,-2.567498684E0,-8.910871506E0,6.867401004E-1,9.298779084E0
3.712625379E0,-2.605783939E0,-8.896514893E0,6.269195080E-1,9.291453882E0
3.715030379E0,-2.636890650E0,-8.906085968E0,5.647061467E-1,9.305399110E0
3.717435379E0,-2.667997360E0,-8.908478737E0,4.929214716E-1,9.312474155E0
3.719840431E0,-2.713460922E0,-8.896514893E0,4.235295951E-1,9.310758547E0
3.722245431E0,-2.725425005E0,-8.886942863E0,3.565305769E-1,9.302301273E0
3.724650431E0,-2.756531715E0,-8.896514893E0,2.847459018E-1,9.318128812E0
3.727055431E0,-2.787638426E0,-8.906085968E0,2.225325108E-1,9.334817405E0
3.729460483E0,-2.787638426E0,-8.913264275E0,1.603191197E-1,9.340391332E0
3.731865483E0,-2.804388046E0,-8.920442581E0,1.100698411E-1,9.351524129E0
3.734270483E0,-2.825923443E0,-8.937192917E0,5.264209956E-2,9.373474901E0
3.736675535E0,-2.837887764E0,-8.927620888E0,-1.196411345E-2,9.367826045E0
3.739080535E0,-2.859423161E0,-8.951549530E0,-6.460621208E-2,9.397378026E0
3.741485535E0,-2.868994236E0,-8.951549530E0,-1.052841991E-1,9.400662300E0
3.743890587E0,-2.895315409E0,-8.973084450E0,-1.292124242E-1,9.429517045E0
3.746295587E0,-2.931207657E0,-8.989834785E0,-1.698904037E-1,9.457165038E0
3.748700587E0,-2.926422119E0,-9.001798630E0,-1.914258152E-1,9.467468977E0
3.751105587E0,-2.964707375E0,-9.025727272E0,-2.225325108E-1,9.502776611E0
3.753510639E0,-2.988635540E0,-9.047262192E0,-2.392822653E-1,9.531114917E0
3.755915639E0,-2.993421078E0,-9.044869423E0,-2.727817893E-1,9.531245592E0
3.758320639E0,-3.012563705E0,-9.078369141E0,-2.967100143E-1,9.569762963E0
3.760725691E0,-3.036491871E0,-9.102297783E0,-3.110669553E-1,9.600461992E0
3.763130691E0,-3.060420275E0,-9.116654396E0,-3.373879790E-1,9.622545936E0
3.765535691E0,-3.098705292E0,-9.162117958E0,-3.565305769E-1,9.678506807E0
3.767940743E0,-3.125026464E0,-9.209974289E0,-3.780659735E-1,9.733054540E0
3.770345743E0,-3.160918713E0,-9.229117393E0,-3.780659735E-1,9.762732653E0
3.772750743E0,-3.199203968E0,-9.276973724E0,-3.780659735E-1,9.820391102E0
3.775155743E0,-3.218346357E0,-9.310472488E0,-3.804588020E-1,9.858367011E0
3.777560795E0,-3.230310678E0,-9.355937004E0,-3.804588020E-1,9.905211416E0
3.779965795E0,-3.263810158E0,-9.382257462E0,-3.732803464E-1,9.940751986E0
3.782370795E0,-3.278167009E0,-9.434899330E0,-3.708875179E-1,9.995061874E0
3.784775847E0,-3.306880951E0,-9.468399048E0,-3.469592929E-1,1.003525899E1
3.787180847E0,-3.314059258E0,-9.489934921E0,-3.469592929E-1,1.005794384E1
3.789585847E0,-3.318845034E0,-9.504291534E0,-3.230310678E-1,1.007227080E1
3.791990847E0,-3.292523861E0,-9.528220177E0,-3.182454109E-1,1.008607819E1
3.794395900E0,-3.285345554E0,-9.547362328E0,-3.014956415E-1,1.010131291E1
3.796800900E0,-3.297309637E0,-9.559326172E0,-3.062812984E-1,1.011665834E1
3.799205900E0,-3.299702406E0,-9.573683739E0,-2.703889608E-1,1.012998354E1
3.801610952E0,-3.287738323E0,-9.626325607E0,-2.440679073E-1,1.017521190E1
3.804015952E0,-3.302095175E0,-9.640682220E0,-2.273181528E-1,1.019304958E1
3.806420952E0,-3.297309637E0,-9.667003632E0,-1.986042857E-1,1.021580412E1
3.808826004E0,-3.297309637E0,-9.688538551E0,-1.842473447E-1,1.023591604E1
3.811231004E0,-3.299702406E0,-9.724431038E0,-1.627119333E-1,1.027030039E1
3.813636004E0,-3.290131092E0,-9.748359680E0,-1.387837082E-1,1.028954518E1
3.816041004E0,-3.299702406E0,-9.772287369E0,-1.363908947E-1,1.031524303E1
3.818446056E0,-3.311666489E0,-9.777072906E0,-1.220339537E-1,1.032342878E1
3.820851056E0,-3.314059258E0,-9.810572624E0,-9.571290761E-2,1.035564990E1
3.823256056E0,-3.333201885E0,-9.812965393E0,-8.135596663E-2,1.036393475E1
3.825661108E0,-3.309273720E0,-9.841679573E0,-7.178468257E-2,1.038340515E1
3.828066108E0,-3.299702406E0,-9.848857880E0,-4.307080805E-2,1.038700595E1
3.830471108E0,-3.287738323E0,-9.868000984E0,-2.392822690E-2,1.040130950E1
3.832876108E0,-3.275774240E0,-9.882357597E0,-1.914258115E-2,1.041115051E1
3.835281160E0,-3.270988464E0,-9.882357597E0,-7.178467698E-3,1.040963058E1
3.837686160E0,-3.242274761E0,-9.889535904E0,9.571290575E-3,1.040746644E1
3.840091160E0,-3.244667530E0,-9.887143135E0,1.674975827E-2,1.040594769E1
3.842496212E0,-3.249453068E0,-9.872786522E0,4.067798331E-2,1.039386904E1
3.844901212E0,-3.244667530E0,-9.875179291E0,6.939185411E-2,1.039479911E1
3.847306212E0,-3.227917671E0,-9.872786522E0,9.092725813E-2,1.038747486E1
3.849711264E0,-3.237488985E0,-9.868000984E0,1.028913707E-1,1.038601776E1
3.852116264E0,-3.256631613E0,-9.853643417E0,1.268195957E-1,1.037863292E1
3.854521264E0,-3.251846075E0,-9.851250648E0,1.411765367E-1,1.037504569E1
3.856926264E0,-3.268595695E0,-9.832108498E0,1.579262912E-1,1.036238467E1
3.859331316E0,-3.278167009E0,-9.841679573E0,1.794617027E-1,1.037483698E1
3.861736316E0,-3.302095175E0,-9.827322960E0,1.794617027E-1,1.036881457E1
3.864141316E0,-3.304488182E0,-9.820143700E0,1.938186288E-1,1.036303190E1
3.866546368E0,-3.294916868E0,-9.784252167E0,1.890329868E-1,1.032588016E1
3.868951368E0,-3.290131092E0,-9.755537987E0,1.890329868E-1,1.029714608E1
3.871356368E0,-3.282952785E0,-9.736394882E0,2.009970993E-1,1.027694333E1
3.873761368E0,-3.292523861E0,-9.702896118E0,2.057827413E-1,1.024837807E1
3.876166420E0,-3.294916868E0,-9.667003632E0,2.057827413E-1,1.021517415E1
3.878571420E0,-3.287738323E0,-9.643074989E0,1.938186288E-1,1.018997960E1
3.880976420E0,-3.270988464E0,-9.623932838E0,1.962114573E-1,1.016651109E1
3.883381472E0,-3.280559778E0,-9.619147301E0,1.746760458E-1,1.016467309E1
3.885786472E0,-3.266202927E0,-9.609575272E0,1.507478207E-1,1.015060310E1
3.888191472E0,-3.261417150E0,-9.568898201E0,1.387837082E-1,1.011038652E1
3.890596525E0,-3.280559778E0,-9.561718941E0,1.148554832E-1,1.010948729E1
3.893001525E0,-3.268595695E0,-9.559326172E0,1.004985496E-1,1.010319428E1
3.895406525E0,-3.256631613E0,-9.554540634E0,6.699903309E-2,1.009452253E1
3.897811525E0,-3.247060299E0,-9.552147865E0,4.546362907E-2,1.008905329E1
3.900216577E0,-3.239881754E0,-9.571290970E0,1.196411345E-2,1.010478044E1
3.902621577E0,-3.239881754E0,-9.554540634E0,2.392822644E-3,1.008890907E1
3.905026577E0,-3.244667530E0,-9.537791252E0,-2.632104978E-2,1.007462268E1
3.907431629E0,-3.239881754E0,-9.516255379E0,-3.589234129E-2,1.005272294E1
3.909836629E0,-3.211168051E0,-9.504291534E0,-4.546362907E-2,1.003220937E1
3.912241629E0,-3.194418192E0,-9.506684303E0,-6.699903309E-2,1.002924937E1
3.914646629E0,-3.194418192E0,-9.494720459E0,-6.699903309E-2,1.001790961E1
3.917051681E0,-3.187239647E0,-9.489934921E0,-8.135596663E-2,1.001119274E1
3.919456681E0,-3.168097258E0,-9.482755661E0,-9.810572863E-2,9.998455875E0
3.921861681E0,-3.163311481E0,-9.470791817E0,-9.810572863E-2,9.985592716E0
3.924266733E0,-3.158525944E0,-9.468399048E0,-1.124626622E-1,9.981959453E0
3.926671733E0,-3.177668571E0,-9.477970123E0,-1.268195957E-1,9.997278551E0
3.929076733E0,-3.196810961E0,-9.487542152E0,-1.387837082E-1,1.001260792E1
3.931481785E0,-3.237488985E0,-9.487542152E0,-1.531406492E-1,1.002587867E1
3.933886785E0,-3.282952785E0,-9.513862610E0,-1.770688742E-1,1.006591844E1
3.936291785E0,-3.345165968E0,-9.566504478E0,-2.057827413E-1,1.013659163E1
