"Time (s)","Acceleration x (m/s^2)","Acceleration y (m/s^2)","Acceleration z (m/s^2)","Absolute acceleration (m/s^2)"
9.489381000E-3,-2.177468538E0,5.063212872E0,7.188039303E0,9.057891743E0
1.189516200E-2,-2.129612207E0,5.063212872E0,7.049255371E0,8.936631022E0
1.430011000E-2,-2.105684042E0,5.075176716E0,6.946363926E0,8.856821991E0
1.670505800E-2,-2.069791555E0,5.067998409E0,6.860222340E0,8.776747433E0
1.910995300E-2,-2.048256159E0,5.058426857E0,6.764509678E0,8.691468618E0
2.151490100E-2,-2.029113531E0,5.096712112E0,6.675975323E0,8.640742016E0
2.391984900E-2,-2.014756680E0,5.082355499E0,6.604190350E0,8.573500573E0
2.632479700E-2,-1.995614052E0,5.077569485E0,6.539584160E0,8.516475110E0
2.872969300E-2,-1.998006940E0,5.079962254E0,6.494120598E0,8.483610704E0
3.113464100E-2,-1.995614052E0,5.077569485E0,6.448657036E0,8.446855325E0
3.353958900E-2,-1.983649969E0,5.087141037E0,6.391229153E0,8.406050274E0
3.594453700E-2,-1.988435626E0,5.082355499E0,6.343372822E0,8.367950312E0
3.834943300E-2,-1.998006940E0,5.079962254E0,6.297909260E0,8.334369159E0
4.075438100E-2,-2.017149448E0,5.060820103E0,6.266802311E0,8.303830635E0
4.315932800E-2,-2.019542217E0,5.036891460E0,6.230910301E0,8.262751935E0
4.556427600E-2,-2.019542217E0,5.022534847E0,6.199803352E0,8.230550933E0
4.796917200E-2,-2.005185366E0,4.984249592E0,6.159125328E0,8.173024969E0
5.037412000E-2,-1.998006940E0,4.984249592E0,6.123233318E0,8.144247172E0
5.277906800E-2,-1.988435626E0,4.957928658E0,6.068198204E0,8.084427145E0
5.518401600E-2,-1.986042738E0,4.931607246E0,6.015556335E0,8.028202402E0
5.758891200E-2,-1.964507341E0,4.917250633E0,5.962913990E0,7.974646458E0
5.999386000E-2,-1.966900229E0,4.900500774E0,5.905486107E0,7.922018083E0
6.239880800E-2,-1.957328916E0,4.874179840E0,5.860022545E0,7.869474558E0
6.480375600E-2,-1.945364833E0,4.850251675E0,5.807380676E0,7.812493581E0
6.720870300E-2,-1.945364833E0,4.843072891E0,5.754738331E0,7.768964707E0
6.961359900E-2,-1.966900229E0,4.819144726E0,5.699703693E0,7.718774164E0
7.201854700E-2,-1.957328916E0,4.795216560E0,5.651846886E0,7.666068847E0
7.442349500E-2,-1.945364833E0,4.768895626E0,5.594419479E0,7.604231660E0
7.682839100E-2,-1.931007862E0,4.759324074E0,5.513063431E0,7.534840768E0
7.923333900E-2,-1.907079697E0,4.725824833E0,5.407779217E0,7.430642595E0
8.163828700E-2,-1.904686809E0,4.704289436E0,5.333601475E0,7.362436800E0
8.404323500E-2,-1.887937069E0,4.675575256E0,5.254638672E0,7.282618892E0
8.644813100E-2,-1.856830359E0,4.666004181E0,5.158925533E0,7.199578228E0
8.885307800E-2,-1.840080619E0,4.630111694E0,5.096712112E0,7.127433293E0
9.125802600E-2,-1.844866276E0,4.603790760E0,5.051248550E0,7.079091245E0
9.366297400E-2,-1.875972986E0,4.565505505E0,4.998606682E0,7.024897431E0
9.606787000E-2,-1.887937069E0,4.520041943E0,4.941178799E0,6.957753478E0
9.847281800E-2,-1.892722726E0,4.474578381E0,4.917250633E0,6.912568610E0
1.008777660E-1,-1.914258122E0,4.429114819E0,4.910071850E0,6.884057510E0
1.032827140E-1,-1.926222205E0,4.381258488E0,4.914857864E0,6.860144732E0
1.056876620E-1,-1.904686809E0,4.333401680E0,4.905286312E0,6.816746714E0
1.080925580E-1,-1.887937069E0,4.278367043E0,4.943571568E0,6.804971034E0
1.104975060E-1,-1.861616015E0,4.208974838E0,4.969892502E0,6.773545221E0
1.129024530E-1,-1.840080619E0,4.139583111E0,5.024927616E0,6.765496476E0
1.153073490E-1,-1.825723648E0,4.113262177E0,5.048855782E0,6.763367303E0
1.177122970E-1,-1.832902193E0,4.051048756E0,5.099104881E0,6.765456161E0
1.201172450E-1,-1.837687731E0,3.988835335E0,5.156532764E0,6.773310393E0
1.225221930E-1,-1.849651933E0,3.938585997E0,5.223531723E0,6.798452441E0
1.249270890E-1,-1.856830359E0,3.902693748E0,5.271388054E0,6.816624494E0
1.273320370E-1,-1.875972986E0,3.857230186E0,5.326423168E0,6.838734029E0
1.297369850E-1,-1.902294040E0,3.785445452E0,5.376672268E0,6.845211798E0
1.321419330E-1,-1.897508383E0,3.732803345E0,5.429314613E0,6.856516320E0
1.345468280E-1,-1.931007862E0,3.704089403E0,5.489135265E0,6.897802232E0
1.369517760E-1,-1.947757602E0,3.656233072E0,5.560919762E0,6.934380185E0
1.393567240E-1,-1.954936147E0,3.601198196E0,5.620740414E0,6.955798055E0
1.417616720E-1,-1.952543259E0,3.553341627E0,5.692524910E0,6.988812614E0
1.441665680E-1,-1.926222205E0,3.500699520E0,5.761917114E0,7.011769958E0
1.465715160E-1,-1.921436548E0,3.460021496E0,5.824130535E0,7.041602350E0
1.489764640E-1,-1.904686809E0,3.397808075E0,5.898307800E0,7.068448660E0
1.513814120E-1,-1.880758643E0,3.330809116E0,5.977271080E0,7.096429525E0
1.537863080E-1,-1.854437590E0,3.287738323E0,6.046662807E0,7.128133919E0
1.561912560E-1,-1.832902193E0,3.239881754E0,6.123233318E0,7.165915887E0
1.585962030E-1,-1.804188251E0,3.206382275E0,6.195017815E0,7.205152896E0
1.610011510E-1,-1.770688772E0,3.127419233E0,6.259624004E0,7.217962487E0
1.634060470E-1,-1.727617979E0,3.062813044E0,6.295516491E0,7.211034288E0
1.658109950E-1,-1.677368641E0,3.019742250E0,6.321837425E0,7.204029237E0
1.682159430E-1,-1.682154298E0,2.952743053E0,6.336194515E0,7.189971875E0
1.706208910E-1,-1.698904037E0,2.892922640E0,6.302694798E0,7.139974653E0
1.730257870E-1,-1.672582984E0,2.861815929E0,6.242874146E0,7.068309688E0
1.754307350E-1,-1.605584025E0,2.821137905E0,6.211767673E0,7.008764283E0
1.778356830E-1,-1.555334687E0,2.787638426E0,6.226124287E0,6.996757650E0
1.802406310E-1,-1.490728498E0,2.744567633E0,6.252445698E0,6.989134435E0
1.826455260E-1,-1.454836130E0,2.706282377E0,6.216553211E0,6.934410306E0
1.850504740E-1,-1.447657704E0,2.703889608E0,6.173482418E0,6.893374864E0
1.874554220E-1,-1.459621787E0,2.718246460E0,6.094519138E0,6.830997226E0
1.898603700E-1,-1.483550072E0,2.718246460E0,5.970092297E0,6.725458101E0
1.922653180E-1,-1.567298889E0,2.727817774E0,5.831308842E0,6.625826622E0
1.946702140E-1,-1.646261930E0,2.720639229E0,5.678168297E0,6.507968298E0
1.970751620E-1,-1.722832322E0,2.711068153E0,5.510670662E0,6.378521215E0
1.994801100E-1,-1.820937991E0,2.672782898E0,5.331208706E0,6.235492751E0
2.018850580E-1,-1.926222205E0,2.627319336E0,5.158925533E0,6.101446676E0
2.042899530E-1,-2.024327993E0,2.562713146E0,5.022534847E0,5.990931379E0
2.066949010E-1,-2.091326952E0,2.512463808E0,4.907679081E0,5.896731024E0
2.090998490E-1,-2.160718918E0,2.423929453E0,4.802394867E0,5.797166264E0
2.115047450E-1,-2.194218397E0,2.356930256E0,4.723432064E0,5.716688296E0
2.139096930E-1,-2.244467735E0,2.275574446E0,4.663611412E0,5.653772712E0
2.163146410E-1,-2.285145521E0,2.201396942E0,4.603790760E0,5.591326132E0
2.187195890E-1,-2.340180635E0,2.151147604E0,4.529613495E0,5.533649775E0
2.211244850E-1,-2.376072884E0,2.112862349E0,4.472185612E0,5.487290205E0
2.235294330E-1,-2.414358139E0,2.060220242E0,4.431507587E0,5.450861598E0
2.259343810E-1,-2.467000246E0,1.990828395E0,4.402793884E0,5.425318599E0
2.283393280E-1,-2.510071039E0,1.942971945E0,4.354937077E0,5.388977040E0
2.307442240E-1,-2.541177750E0,1.859223247E0,4.352544308E0,5.372051506E0
2.331491720E-1,-2.538784742E0,1.782652855E0,4.381258488E0,5.368305608E0
2.355541200E-1,-2.543570518E0,1.696511269E0,4.419543266E0,5.374036114E0
2.379590680E-1,-2.524427891E0,1.603191137E0,4.484149456E0,5.389856616E0
2.403639640E-1,-2.505285263E0,1.509871125E0,4.560719967E0,5.418148363E0
2.427689120E-1,-2.481357098E0,1.435693622E0,4.673182487E0,5.482424991E0
2.451738600E-1,-2.488535643E0,1.359123230E0,4.783252239E0,5.560533030E0
2.475788080E-1,-2.517249346E0,1.275374413E0,4.878965378E0,5.636260047E0
2.499837030E-1,-2.548356056E0,1.215553880E0,4.972285271E0,5.717981343E0
2.523886510E-1,-2.577069998E0,1.167697430E0,5.089533806E0,5.823071477E0
2.547935990E-1,-2.641676188E0,1.115055323E0,5.247459888E0,5.979768953E0
2.571985470E-1,-2.703889608E0,1.083948612E0,5.367101192E0,6.106696228E0
2.596034430E-1,-2.763710260E0,1.057627559E0,5.503491879E0,6.248607310E0
2.620083910E-1,-2.852244616E0,1.031306505E0,5.627918720E0,6.393149582E0
2.644133390E-1,-2.943171740E0,1.024128079E0,5.752345562E0,6.542215044E0
2.668182870E-1,-3.041277647E0,1.024128079E0,5.836094379E0,6.660195617E0
2.692231830E-1,-3.148954630E0,1.002592683E0,5.891129494E0,6.754740118E0
2.716281310E-1,-3.266202927E0,9.930213690E-1,5.938985825E0,6.850235443E0
2.740330780E-1,-3.366701365E0,1.007378340E0,5.912664890E0,6.878160750E0
2.764380260E-1,-3.481556892E0,9.978070259E-1,5.864808083E0,6.892955179E0
2.788429220E-1,-3.589233875E0,9.595218897E-1,5.788238049E0,6.878007108E0
2.812478700E-1,-3.696911097E0,9.068797827E-1,5.678168297E0,6.836020612E0
2.836528180E-1,-3.783052683E0,8.494520187E-1,5.575276852E0,6.790932801E0
2.860577660E-1,-3.869194269E0,7.968099117E-1,5.479563713E0,6.755086144E0
2.884626620E-1,-3.957728624E0,7.130611539E-1,5.379065514E0,6.716131169E0
2.908676100E-1,-4.022335052E0,6.245267391E-1,5.254638672E0,6.646836879E0
2.932725580E-1,-4.043870449E0,5.264210105E-1,5.137390137E0,6.559175612E0
2.956775060E-1,-4.055834293E0,4.211367965E-1,5.056034088E0,6.495431373E0
2.980824010E-1,-4.094119549E0,3.541377485E-1,4.948357105E0,6.432220959E0
3.004873490E-1,-4.091726780E0,2.751746178E-1,4.874179840E0,6.369896249E0
3.028922970E-1,-4.077369690E0,1.746760458E-1,4.821537495E0,6.316856744E0
3.052972450E-1,-4.070191383E0,1.100698411E-1,4.754538536E0,6.259729224E0
3.077021410E-1,-4.074976921E0,1.914258115E-2,4.711467743E0,6.229264133E0
3.101070890E-1,-4.058227062E0,-6.221338734E-2,4.701896667E0,6.211353288E0
3.125120370E-1,-4.058227062E0,-1.363908947E-1,4.728217602E0,6.232483538E0
3.149169850E-1,-4.091726780E0,-2.464607358E-1,4.790431023E0,6.304855297E0
3.173218810E-1,-4.141975880E0,-3.278166950E-1,4.876572609E0,6.406589450E0
3.197268280E-1,-4.192225456E0,-4.211367965E-1,5.003392220E0,6.541104202E0
3.221317760E-1,-4.242474556E0,-5.048855543E-1,5.149354458E0,6.690990294E0
3.245367240E-1,-4.338187218E0,-5.647061467E-1,5.309673309E0,6.879781393E0
3.269416200E-1,-4.443471432E0,-6.388836503E-1,5.503491879E0,7.102185124E0
3.293465680E-1,-4.560719967E0,-6.843472719E-1,5.690132141E0,7.324349909E0
3.317515160E-1,-4.694717884E0,-7.274180651E-1,5.934200287E0,7.601594971E0
3.341564640E-1,-4.809573650E0,-7.872386575E-1,6.180660725E0,7.870978999E0
3.365613600E-1,-4.914857864E0,-8.015955687E-1,6.405586243E0,8.113563853E0
3.389663080E-1,-5.020142078E0,-8.422735929E-1,6.637690067E0,8.364818033E0
3.413712560E-1,-5.125426292E0,-8.063812256E-1,6.848258495E0,8.591792000E0
3.437761510E-1,-5.261816978E0,-7.776673436E-1,6.948757172E0,8.750811999E0
3.461810990E-1,-5.386243820E0,-7.633104324E-1,6.967899323E0,8.840016192E0
3.485860470E-1,-5.496313572E0,-7.393822074E-1,7.058826923E0,8.976813826E0
3.509909950E-1,-5.668596745E0,-7.274180651E-1,7.149754047E0,9.153202119E0
3.533959430E-1,-5.874379635E0,-7.298108935E-1,7.094718933E0,9.239913245E0
3.558008390E-1,-6.077769279E0,-7.609176040E-1,6.951149940E0,9.264813032E0
3.582057870E-1,-6.271588326E0,-8.087740541E-1,6.857829571E0,9.328277548E0
3.606107350E-1,-6.410371780E0,-8.877372146E-1,6.776473522E0,9.370247442E0
3.630156830E-1,-6.565905571E0,-1.012163997E0,6.664011002E0,9.409815862E0
3.654205780E-1,-6.699903488E0,-1.124626637E0,6.549155712E0,9.436362242E0
3.678255260E-1,-6.800402164E0,-1.258624673E0,6.472585201E0,9.472273479E0
3.702304740E-1,-6.874579430E0,-1.392622828E0,6.393621922E0,9.490924189E0
3.726354220E-1,-6.946363926E0,-1.507478237E0,6.333801746E0,9.520583332E0
3.750403180E-1,-7.027719975E0,-1.605584025E0,6.285944939E0,9.564510017E0
3.774452660E-1,-7.097112179E0,-1.722832322E0,6.276373863E0,9.629642847E0
3.798502140E-1,-7.180860519E0,-1.813759565E0,6.278766632E0,9.709654576E0
3.822551620E-1,-7.223931789E0,-1.897508383E0,6.314659119E0,9.780626173E0
3.846600580E-1,-7.262216568E0,-1.966900229E0,6.352943897E0,9.847252518E0
3.870650060E-1,-7.252645493E0,-2.036292076E0,6.424728870E0,9.900731949E0
3.894699530E-1,-7.223931789E0,-2.103291035E0,6.506084919E0,9.946766542E0
3.918748490E-1,-7.164111137E0,-2.160718918E0,6.668796539E0,1.002327501E1
3.942797970E-1,-7.063612461E0,-2.242074728E0,6.853044033E0,1.009384627E1
3.966847450E-1,-6.991827965E0,-2.309073925E0,7.042077065E0,1.018863730E1
3.990896930E-1,-6.927221775E0,-2.395215511E0,7.243073940E0,1.030463871E1
4.014945890E-1,-6.905686378E0,-2.452643156E0,7.444071293E0,1.044596382E1
4.038995370E-1,-6.891329288E0,-2.495713949E0,7.590033531E0,1.055119029E1
4.063044850E-1,-6.821937561E0,-2.543570518E0,7.771887779E0,1.064945176E1
4.087094330E-1,-6.802794933E0,-2.608176708E0,8.008777618E0,1.082687044E1
4.111143280E-1,-6.788437843E0,-2.634497643E0,8.202595711E0,1.096841112E1
4.135192760E-1,-6.762116909E0,-2.658426046E0,8.362915039E0,1.107843861E1
4.159242240E-1,-6.781259537E0,-2.679961443E0,8.513663292E0,1.120937719E1
4.183291720E-1,-6.819544315E0,-2.682354212E0,8.673981667E0,1.135513834E1
4.207340680E-1,-6.884150982E0,-2.715853691E0,8.796015739E0,1.149509847E1
4.231390160E-1,-6.936792850E0,-2.715853691E0,8.898907661E0,1.160540882E1
4.255439640E-1,-7.006184578E0,-2.732603550E0,8.999405861E0,1.172787493E1
4.279489120E-1,-7.085147858E0,-2.720639229E0,9.078369141E0,1.183291951E1
4.303538080E-1,-7.188039303E0,-2.694318295E0,9.128618240E0,1.192723485E1
4.327587560E-1,-7.267002583E0,-2.679961443E0,9.145368576E0,1.198454364E1
4.351637030E-1,-7.353144169E0,-2.653640270E0,9.140582085E0,1.202750085E1
4.375686510E-1,-7.453642368E0,-2.624926329E0,9.073583603E0,1.203232904E1
4.399735470E-1,-7.604390144E0,-2.608176708E0,8.939585686E0,1.202270882E1
4.423784950E-1,-7.776673794E0,-2.624926329E0,8.757730484E0,1.200269706E1
4.447834430E-1,-7.972885132E0,-2.653640270E0,8.516056061E0,1.196377511E1
4.471883910E-1,-8.178668022E0,-2.725425005E0,8.214560509E0,1.190787791E1
4.495932870E-1,-8.365307808E0,-2.828316450E0,7.960920811E0,1.188923920E1
4.519982350E-1,-8.523234367E0,-2.943171740E0,7.764709473E0,1.189951668E1
4.544031830E-1,-8.671588898E0,-3.069991350E0,7.566105366E0,1.191080397E1
4.568081310E-1,-8.776873589E0,-3.242274761E0,7.417750359E0,1.194022094E1
4.592130260E-1,-8.858229637E0,-3.407379389E0,7.314858913E0,1.198272204E1
4.616179740E-1,-8.910871506E0,-3.594019651E0,7.226324558E0,1.202249454E1
4.640229220E-1,-8.944371223E0,-3.763910055E0,7.178467751E0,1.207059215E1
4.664278700E-1,-8.968298912E0,-3.902693748E0,7.178467751E0,1.213226290E1
4.688327660E-1,-8.956335068E0,-4.012763500E0,7.211967468E0,1.217910849E1
4.712377140E-1,-8.908478737E0,-4.125226021E0,7.283751965E0,1.222421882E1
4.736426620E-1,-8.836693764E0,-4.211368084E0,7.367500782E0,1.225164665E1
4.760476100E-1,-8.774480820E0,-4.297509670E0,7.494320393E0,1.231360797E1
4.784525060E-1,-8.654839516E0,-4.359723091E0,7.647460938E0,1.234492168E1
4.808574530E-1,-8.528019905E0,-4.398007870E0,7.802994728E0,1.236755123E1
4.832624010E-1,-8.432307243E0,-4.431507587E0,7.999206066E0,1.243902579E1
4.856673490E-1,-8.307880402E0,-4.448257446E0,8.209774017E0,1.249833031E1
4.880722450E-1,-8.202595711E0,-4.453042984E0,8.439485550E0,1.258320645E1
4.904771930E-1,-8.123632431E0,-4.438685894E0,8.659625053E0,1.267613673E1
4.928821410E-1,-8.068597794E0,-4.407579422E0,8.877371788E0,1.278032694E1
4.952870370E-1,-8.049455643E0,-4.400400639E0,9.102297783E0,1.292319956E1
4.976919850E-1,-8.044670105E0,-4.366901398E0,9.300901413E0,1.304964796E1
5.000969330E-1,-8.070990562E0,-4.350151539E0,9.499505997E0,1.320247406E1
5.025018810E-1,-8.133204460E0,-4.311866283E0,9.676574707E0,1.335579663E1
5.049067760E-1,-8.212167740E0,-4.252045631E0,9.784252167E0,1.346295590E1
5.073117240E-1,-8.283951759E0,-4.194618225E0,9.884750366E0,1.356196773E1
5.097166720E-1,-8.382058144E0,-4.156332970E0,9.951749802E0,1.365911149E1
5.121216200E-1,-8.499305725E0,-4.115654945E0,9.951749802E0,1.371911577E1
5.145265160E-1,-8.614161491E0,-4.089334011E0,9.863214493E0,1.371894424E1
5.169314640E-1,-8.733802795E0,-4.086941242E0,9.700503349E0,1.367779826E1
5.193364120E-1,-8.853444099E0,-4.125226021E0,9.509077072E0,1.363170968E1
5.217413600E-1,-8.980263710E0,-4.182653904E0,9.308079720E0,1.359338361E1
5.241462560E-1,-9.102297783E0,-4.252045631E0,9.097511292E0,1.355346556E1
5.265512030E-1,-9.205188751E0,-4.299902439E0,8.870193481E0,1.348721592E1
5.289561510E-1,-9.332008362E0,-4.362115860E0,8.669196129E0,1.346363236E1
5.313610990E-1,-9.391828537E0,-4.448257446E0,8.463413239E0,1.340234312E1
5.337659950E-1,-9.432506561E0,-4.512863636E0,8.279166222E0,1.333726777E1
5.361709430E-1,-9.456435204E0,-4.599005222E0,8.130811691E0,1.329229531E1
5.385758910E-1,-9.458827972E0,-4.689932346E0,8.018348694E0,1.325740577E1
5.409807870E-1,-9.413364410E0,-4.771288395E0,7.934599876E0,1.320357897E1
5.433857350E-1,-9.367900848E0,-4.840680122E0,7.834101200E0,1.313631957E1
5.457906830E-1,-9.286544800E0,-4.902893543E0,7.762316704E0,1.305878402E1
5.481956310E-1,-9.198010445E0,-4.965106964E0,7.733603001E0,1.300247279E1
5.506005780E-1,-9.092725754E0,-4.991427898E0,7.707281590E0,1.292262371E1
5.530054740E-1,-8.975478172E0,-5.024927616E0,7.690532207E0,1.284341822E1
5.554104220E-1,-8.851051331E0,-5.046463013E0,7.673782349E0,1.275518852E1
5.578153700E-1,-8.726624489E0,-5.065605640E0,7.678567886E0,1.267969796E1
5.602202660E-1,-8.592626572E0,-5.089533806E0,7.668996811E0,1.259166779E1
5.626252140E-1,-8.470592499E0,-5.101497650E0,7.680960655E0,1.252091738E1
5.650301620E-1,-8.329415321E0,-5.103890896E0,7.678567886E0,1.242534775E1
5.674351100E-1,-8.204988480E0,-5.099104881E0,7.678567886E0,1.234030434E1
5.698400060E-1,-8.104490280E0,-5.096712112E0,7.678567886E0,1.227271942E1
5.722449530E-1,-8.030312538E0,-5.089533806E0,7.676175117E0,1.221936734E1
5.746499010E-1,-7.970492363E0,-5.091926575E0,7.678567886E0,1.218264625E1
5.770548490E-1,-7.951349735E0,-5.079962254E0,7.676175117E0,1.216361967E1
5.794597450E-1,-7.960920811E0,-5.063212872E0,7.671389580E0,1.215987676E1
5.818646930E-1,-8.030312538E0,-5.039284706E0,7.685746193E0,1.220454851E1
5.842696410E-1,-8.109275818E0,-5.015356064E0,7.668996811E0,1.223632554E1
5.866745890E-1,-8.190631866E0,-5.005784988E0,7.647460938E0,1.227305962E1
5.890794850E-1,-8.286344528E0,-4.977071285E0,7.621140003E0,1.230920465E1
5.914844330E-1,-8.374878883E0,-4.957928658E0,7.580461979E0,1.233624970E1
5.938893810E-1,-8.487341881E0,-4.907679081E0,7.527820110E0,1.236075895E1
5.962943280E-1,-8.583054543E0,-4.905286312E0,7.451249599E0,1.237949028E1
5.986992240E-1,-8.690732002E0,-4.900500774E0,7.372286797E0,1.240541588E1
6.011041720E-1,-8.784051895E0,-4.888536453E0,7.269395351E0,1.240570293E1
6.035091200E-1,-8.872586250E0,-4.876572609E0,7.147361279E0,1.239308357E1
6.059140680E-1,-8.932407379E0,-4.890929699E0,7.025327206E0,1.237191647E1
6.083189640E-1,-8.980263710E0,-4.912465096E0,6.908079147E0,1.234904883E1
6.107239120E-1,-8.970691681E0,-4.924428940E0,6.783652306E0,1.227767275E1
6.131288600E-1,-8.975478172E0,-4.922036171E0,6.675975323E0,1.222105949E1
6.155338080E-1,-8.956335068E0,-4.936393261E0,6.563512325E0,1.215169166E1
6.179387030E-1,-8.891729355E0,-4.953142643E0,6.455835342E0,1.205297818E1
6.203436510E-1,-8.839086533E0,-4.957928658E0,6.355337143E0,1.196247539E1
6.227485990E-1,-8.762516975E0,-4.969892502E0,6.264409542E0,1.186272996E1
6.251535470E-1,-8.647661209E0,-4.979464054E0,6.180660725E0,1.173787347E1
6.275584430E-1,-8.537590981E0,-5.000999451E0,6.116054535E0,1.163213559E1
6.299633910E-1,-8.420342445E0,-5.022534847E0,6.029912949E0,1.151033767E1
6.323683390E-1,-8.291130066E0,-5.041677475E0,5.941378593E0,1.137810745E1
6.347732870E-1,-8.164310455E0,-5.041677475E0,5.860022545E0,1.124341324E1
6.371781830E-1,-8.051848412E0,-5.053641319E0,5.783452511E0,1.112743800E1
6.395831310E-1,-7.944170952E0,-5.079962254E0,5.716453075E0,1.102695354E1
6.419880780E-1,-7.829315662E0,-5.079962254E0,5.635097504E0,1.090222565E1
6.443929740E-1,-7.719245911E0,-5.094319344E0,5.546562672E0,1.078439634E1
6.467979220E-1,-7.625925541E0,-5.094319344E0,5.472385406E0,1.067959887E1
6.492028700E-1,-7.556533813E0,-5.103890896E0,5.393422127E0,1.059433376E1
6.516078180E-1,-7.494320393E0,-5.127819061E0,5.324030399E0,1.052637954E1
6.540127140E-1,-7.463213921E0,-5.130211830E0,5.252245903E0,1.046922741E1
6.564176620E-1,-7.420143127E0,-5.151747227E0,5.192425251E0,1.041922759E1
6.588226100E-1,-7.401000500E0,-5.168497086E0,5.139782906E0,1.038775909E1
6.612275580E-1,-7.396214962E0,-5.194818020E0,5.051248550E0,1.035399642E1
6.636324530E-1,-7.377072334E0,-5.230710506E0,4.993820667E0,1.033052629E1
6.660374010E-1,-7.372286797E0,-5.242674351E0,4.917250633E0,1.029638775E1
6.684423490E-1,-7.336394310E0,-5.266602516E0,4.838287354E0,1.024542864E1
6.708472450E-1,-7.307680130E0,-5.292923450E0,4.759324074E0,1.020139173E1
6.732521930E-1,-7.293323517E0,-5.295316696E0,4.649254322E0,1.014142557E1
6.756571410E-1,-7.269395351E0,-5.319244862E0,4.551148891E0,1.009214699E1
6.780620890E-1,-7.252645493E0,-5.338387489E0,4.431507587E0,1.003680762E1
6.804670370E-1,-7.247859955E0,-5.364708424E0,4.302295208E0,9.991061728E0
6.828719330E-1,-7.235895634E0,-5.379065514E0,4.204189301E0,9.948253068E0
6.852768810E-1,-7.228717327E0,-5.398207664E0,4.094119549E0,9.907412128E0
6.876818280E-1,-7.235895634E0,-5.431707382E0,3.957728624E0,9.875487156E0
6.900867240E-1,-7.226324558E0,-5.462814331E0,3.826123476E0,9.833683333E0
6.924916720E-1,-7.216753006E0,-5.520241737E0,3.704089403E0,9.811975902E0
6.948966200E-1,-7.231110096E0,-5.563312531E0,3.591626883E0,9.805059061E0
6.973015680E-1,-7.250252724E0,-5.625525951E0,3.471985579E0,9.811594704E0
6.997064640E-1,-7.247859955E0,-5.673382282E0,3.342773199E0,9.792490649E0
7.021114120E-1,-7.250252724E0,-5.757131100E0,3.242274761E0,9.809335792E0
7.045163600E-1,-7.247859955E0,-5.850451469E0,3.146561861E0,9.831587251E0
7.069212560E-1,-7.243073940E0,-5.907878876E0,3.072384357E0,9.838937877E0
7.093262030E-1,-7.243073940E0,-5.974878311E0,3.002992392E0,9.857953857E0
7.117311510E-1,-7.219145775E0,-6.049055576E0,2.943171740E0,9.867593373E0
7.141360990E-1,-7.209574699E0,-6.123233318E0,2.883351326E0,9.888663635E0
7.165409950E-1,-7.161718369E0,-6.204588890E0,2.864208698E0,9.899031506E0
7.189459430E-1,-7.159325123E0,-6.281159401E0,2.849851847E0,9.941355802E0
7.213508910E-1,-7.159325123E0,-6.369693756E0,2.845066071E0,9.996166050E0
7.237558390E-1,-7.156932354E0,-6.429514408E0,2.861815929E0,1.003744622E1
7.261607350E-1,-7.209574699E0,-6.494120598E0,2.890529871E0,1.012456086E1
7.285656830E-1,-7.302894592E0,-6.553941250E0,2.926422119E0,1.023964656E1
7.309706310E-1,-7.393822193E0,-6.604190350E0,2.983849764E0,1.035312978E1
7.333755780E-1,-7.527820110E0,-6.690331936E0,3.043670416E0,1.052105254E1
7.357804740E-1,-7.649854183E0,-6.745367050E0,3.108276606E0,1.066215875E1
7.381854220E-1,-7.779066563E0,-6.807580471E0,3.187239647E0,1.081737145E1
7.405903700E-1,-7.901100159E0,-6.833901405E0,3.278167009E0,1.094878857E1
7.429953180E-1,-8.015955925E0,-6.860222340E0,3.395415306E0,1.108363862E1
7.454002140E-1,-8.159524918E0,-6.905686378E0,3.483949661E0,1.124296475E1
7.478051620E-1,-8.262416840E0,-6.927221775E0,3.594019651E0,1.136533813E1
7.502101100E-1,-8.358129501E0,-6.939185619E0,3.684946775E0,1.147124486E1
7.526150580E-1,-8.470592499E0,-6.960721016E0,3.795016766E0,1.160192771E1
7.550199530E-1,-8.568697929E0,-6.996613503E0,3.888336897E0,1.172579842E1
7.574249010E-1,-8.633303642E0,-7.034898758E0,3.991228104E0,1.183020009E1
7.598298490E-1,-8.709874153E0,-7.042077065E0,4.082155228E0,1.192127294E1
7.622347970E-1,-8.760123253E0,-7.085147858E0,4.168296814E0,1.201306696E1
7.646396930E-1,-8.793622971E0,-7.109076023E0,4.254438877E0,1.208168105E1
7.670446410E-1,-8.812766075E0,-7.133004189E0,4.316651821E0,1.213169723E1
7.694495890E-1,-8.827122688E0,-7.142575741E0,4.338187218E0,1.215542478E1
7.718544850E-1,-8.834300995E0,-7.130611420E0,4.364508629E0,1.216303535E1
7.742594330E-1,-8.800801277E0,-7.092326164E0,4.381258488E0,1.212231906E1
7.766643810E-1,-8.774480820E0,-7.063612461E0,4.390829563E0,1.208989325E1
7.790693280E-1,-8.729017258E0,-7.054041386E0,4.390829563E0,1.205133297E1
7.814742240E-1,-8.683553696E0,-7.051648140E0,4.378865242E0,1.201267277E1
7.838791720E-1,-8.640482903E0,-7.046862602E0,4.335794449E0,1.196308200E1
7.862841200E-1,-8.563912392E0,-7.054041386E0,4.275974274E0,1.189050257E1
7.886890680E-1,-8.518448830E0,-7.039684296E0,4.225724697E0,1.183122456E1
7.910939640E-1,-8.487341881E0,-7.049255371E0,4.165904045E0,1.179329174E1
7.934989120E-1,-8.456234932E0,-7.039684296E0,4.115654945E0,1.174749675E1
7.959038600E-1,-8.429914474E0,-7.042077065E0,4.060619831E0,1.171080445E1
7.983088080E-1,-8.403593063E0,-7.077969551E0,3.981656790E0,1.168638610E1
8.007137030E-1,-8.377271652E0,-7.080362320E0,3.924229145E0,1.164945429E1
8.031186510E-1,-8.372486115E0,-7.087540627E0,3.859622955E0,1.162877660E1
8.055235990E-1,-8.353343964E0,-7.106683254E0,3.790230989E0,1.160384217E1
8.079285470E-1,-8.334200859E0,-7.118647575E0,3.751945972E0,1.158495342E1
8.103334430E-1,-8.300702095E0,-7.128218651E0,3.701696634E0,1.155057204E1
8.127383910E-1,-8.303094864E0,-7.133004189E0,3.661018610E0,1.154227839E1
8.151433390E-1,-8.310273170E0,-7.144968510E0,3.620340586E0,1.154201374E1
8.175482350E-1,-8.315058708E0,-7.166503906E0,3.584448338E0,1.154760795E1
8.199531830E-1,-8.331808090E0,-7.173682213E0,3.546163082E0,1.155231644E1
8.223581310E-1,-8.353343964E0,-7.168896675E0,3.507878065E0,1.155320923E1
8.247630780E-1,-8.353343964E0,-7.156932354E0,3.462414265E0,1.153205743E1
8.271679740E-1,-8.377271652E0,-7.142575741E0,3.426522017E0,1.152979279E1
8.295729220E-1,-8.420342445E0,-7.099504948E0,3.385843992E0,1.152254646E1
8.319778700E-1,-8.465806961E0,-7.061219692E0,3.335594654E0,1.151767784E1
8.343828180E-1,-8.530412674E0,-7.037291527E0,3.285345554E0,1.153624323E1
8.367877140E-1,-8.583054543E0,-6.991827965E0,3.180061340E0,1.151812805E1
8.391926620E-1,-8.640482903E0,-6.984649181E0,3.101098061E0,1.153516702E1
8.415976100E-1,-8.707481384E0,-6.972685337E0,3.014956474E0,1.155545479E1
8.440025580E-1,-8.745766640E0,-6.946363926E0,2.921636343E0,1.154453831E1
8.464074530E-1,-8.793622971E0,-6.917650223E0,2.840280533E0,1.154334800E1
8.488124010E-1,-8.834300995E0,-6.905686378E0,2.723032236E0,1.153898969E1
8.512173490E-1,-8.853444099E0,-6.922435760E0,2.636890650E0,1.154369012E1
8.536222970E-1,-8.843872070E0,-6.929614544E0,2.553141832E0,1.152181254E1
8.560271930E-1,-8.810373306E0,-6.955935478E0,2.467000246E0,1.149320697E1
8.584321410E-1,-8.781659126E0,-6.963113785E0,2.380858421E0,1.145735473E1
8.608370890E-1,-8.736195564E0,-6.975078106E0,2.299502611E0,1.141317396E1
8.632419850E-1,-8.678768158E0,-6.999006271E0,2.234896421E0,1.137109790E1
8.656469330E-1,-8.614161491E0,-7.025327206E0,2.177468538E0,1.132697531E1
8.680518810E-1,-8.537590981E0,-7.030112743E0,2.127219439E0,1.126223812E1
8.704568280E-1,-8.432307243E0,-7.046862602E0,2.105684042E0,1.118910109E1
8.728617240E-1,-8.343772888E0,-7.025327206E0,2.086541414E0,1.110528808E1
8.752666720E-1,-8.238488197E0,-6.994220734E0,2.079362869E0,1.100525154E1
8.776716200E-1,-8.166703224E0,-6.960721016E0,2.076970100E0,1.092979796E1
8.800765680E-1,-8.070990562E0,-6.941578388E0,2.096112728E0,1.084988884E1
8.824814640E-1,-7.970492363E0,-6.927221775E0,2.108076811E0,1.076843247E1
8.848864120E-1,-7.901100159E0,-6.900900364E0,2.112862349E0,1.070112129E1
8.872913600E-1,-7.838887215E0,-6.869793892E0,2.112862349E0,1.063514966E1
8.896962560E-1,-7.779066563E0,-6.855436802E0,2.122433662E0,1.058374296E1
8.921012030E-1,-7.707281590E0,-6.855436802E0,2.124826431E0,1.053157588E1
8.945061510E-1,-7.654639721E0,-6.853044033E0,2.105684042E0,1.048768931E1
8.969110990E-1,-7.628318787E0,-6.848258495E0,2.086541414E0,1.046152699E1
8.993159950E-1,-7.601997375E0,-6.833901405E0,2.060220242E0,1.042770732E1
9.017209430E-1,-7.597211838E0,-6.817151546E0,2.014756680E0,1.040434656E1
9.041258910E-1,-7.613961697E0,-6.819544315E0,1.964507341E0,1.040854872E1
9.065308390E-1,-7.637889862E0,-6.824330330E0,1.914258122E0,1.041984790E1
9.089357350E-1,-7.654639721E0,-6.836294174E0,1.849651933E0,1.042830953E1
9.113406830E-1,-7.664210796E0,-6.853044033E0,1.789831281E0,1.043589170E1
9.137456310E-1,-7.692924976E0,-6.841079712E0,1.722832322E0,1.043789335E1
9.161505780E-1,-7.724031448E0,-6.865008354E0,1.643869162E0,1.046380941E1
9.185554740E-1,-7.762316704E0,-6.865008354E0,1.581655741E0,1.048253477E1
9.209604220E-1,-7.776673794E0,-6.850651264E0,1.509871125E0,1.047319382E1
9.233653700E-1,-7.783852100E0,-6.860222340E0,1.452443361E0,1.047666912E1
9.257702660E-1,-7.812565804E0,-6.860222340E0,1.402194023E0,1.049118597E1
9.281752140E-1,-7.822137356E0,-6.886543751E0,1.320838094E0,1.050499552E1
9.305801620E-1,-7.831708431E0,-6.893722057E0,1.256231904E0,1.050890952E1
9.329851100E-1,-7.869993687E0,-6.912864685E0,1.189232826E0,1.054223759E1
9.353900060E-1,-7.901100159E0,-6.929614544E0,1.136590719E0,1.057065655E1
9.377949530E-1,-7.934599876E0,-6.967899323E0,1.076770186E0,1.061456218E1
9.401999010E-1,-7.951349735E0,-6.989434719E0,1.004985452E0,1.063419748E1
9.426048490E-1,-7.963313580E0,-7.003791809E0,9.499505758E-1,1.064752877E1
9.450097450E-1,-7.994420528E0,-7.032505512E0,8.829515576E-1,1.068393639E1
9.474146930E-1,-7.992027760E0,-7.044469833E0,8.494520187E-1,1.068731171E1
9.498196410E-1,-8.013563156E0,-7.056434155E0,8.111668825E-1,1.070833550E1
9.522245370E-1,-8.025527000E0,-7.061219692E0,7.920243144E-1,1.071901160E1
9.546294850E-1,-8.018348694E0,-7.066005230E0,7.752745152E-1,1.071556794E1
9.570344330E-1,-7.992027760E0,-7.080362320E0,7.489534616E-1,1.070350268E1
9.594393810E-1,-7.975277901E0,-7.073183537E0,7.465606928E-1,1.068608141E1
9.618442760E-1,-7.960920811E0,-7.070790768E0,7.465606928E-1,1.067378542E1
9.642492240E-1,-7.939385414E0,-7.077969551E0,7.561319470E-1,1.066317163E1
9.666541720E-1,-7.932207108E0,-7.077969551E0,7.465606928E-1,1.065715325E1
9.690591200E-1,-7.946564198E0,-7.063612461E0,7.609176040E-1,1.065933859E1
9.714640160E-1,-7.946564198E0,-7.075576782E0,7.800601721E-1,1.066865330E1
9.738689640E-1,-7.944170952E0,-7.087540627E0,7.944171429E-1,1.067586918E1
9.762742760E-1,-7.953742504E0,-7.104290485E0,8.303094506E-1,1.069683958E1
9.786788600E-1,-7.941778183E0,-7.099504948E0,8.518448472E-1,1.068646110E1
9.810837560E-1,-7.920242786E0,-7.101897717E0,8.374879360E-1,1.067092231E1
9.834887030E-1,-7.898707390E0,-7.101897717E0,8.303094506E-1,1.065438611E1
9.858936510E-1,-7.869993687E0,-7.109076023E0,7.944171429E-1,1.063517095E1
9.882985470E-1,-7.812565804E0,-7.111468792E0,7.585247755E-1,1.059172000E1
9.907034950E-1,-7.745566845E0,-7.121040344E0,7.274180651E-1,1.054666575E1
9.931084430E-1,-7.678567886E0,-7.159325123E0,6.867401004E-1,1.052083423E1
9.955133910E-1,-7.613961697E0,-7.197610378E0,6.340979934E-1,1.049667034E1
9.979182870E-1,-7.573283672E0,-7.221538544E0,5.910272002E-1,1.048115250E1
1.000323235E0,-7.530212879E0,-7.247859955E0,5.216353536E-1,1.046459189E1
1.002728183E0,-7.470392227E0,-7.298109055E0,4.354937077E-1,1.045269394E1
1.005133131E0,-7.398607731E0,-7.338787079E0,3.565305769E-1,1.042709481E1
1.007538026E0,-7.319644451E0,-7.372286797E0,3.038884699E-1,1.039327454E1
1.009942974E0,-7.228717327E0,-7.408178806E0,2.512463629E-1,1.035367530E1
1.012347922E0,-7.123433113E0,-7.434499741E0,1.746760458E-1,1.029784431E1
1.014752870E0,-7.044469833E0,-7.448856831E0,1.100698411E-1,1.025290879E1
1.017157766E0,-6.972685337E0,-7.448856831E0,4.067798331E-2,1.020320849E1
1.019562714E0,-6.884150982E0,-7.456035137E0,-2.871387079E-2,1.014814363E1
1.021967662E0,-6.817151546E0,-7.446464062E0,-9.810572863E-2,1.009618774E1
1.024372558E0,-6.781259537E0,-7.420143127E0,-1.459621787E-1,1.005312438E1
1.026777506E0,-6.747759819E0,-7.405786037E0,-2.033899277E-1,1.002094291E1
1.029182453E0,-6.714260101E0,-7.398607731E0,-2.464607358E-1,9.994069639E0
1.031587401E0,-6.707081795E0,-7.379465103E0,-2.727817893E-1,9.975763696E0
1.033992297E0,-6.680760860E0,-7.362715244E0,-3.254238665E-1,9.947263047E0
1.036397245E0,-6.664011002E0,-7.348358154E0,-3.756731451E-1,9.927161755E0
1.038802193E0,-6.618547440E0,-7.365108013E0,-4.211367965E-1,9.910970813E0
1.041207141E0,-6.611369133E0,-7.377072334E0,-4.761717021E-1,9.917567117E0
1.043612037E0,-6.589833736E0,-7.403393269E0,-5.288137794E-1,9.925511804E0
1.046016985E0,-6.549155712E0,-7.436892986E0,-6.029912829E-1,9.927860611E0
1.048421933E0,-6.546762943E0,-7.460821152E0,-6.628118753E-1,9.948028793E0
1.050826828E0,-6.549155712E0,-7.470392227E0,-7.369893789E-1,9.961995479E0
1.053231776E0,-6.537191391E0,-7.477570534E0,-8.063812256E-1,9.964897543E0
1.055636724E0,-6.558726788E0,-7.499105930E0,-8.853443861E-1,1.000186590E1
1.058041672E0,-6.577869415E0,-7.508677483E0,-9.571290612E-1,1.002819523E1
1.060446568E0,-6.630511761E0,-7.513463020E0,-1.031306505E0,1.007369872E1
1.062851516E0,-6.678368092E0,-7.532605648E0,-1.098305583E0,1.012655042E1
1.065256464E0,-6.709474564E0,-7.563712597E0,-1.186840057E0,1.018014668E1
1.067661412E0,-6.735795975E0,-7.582854748E0,-1.253839016E0,1.021972337E1
1.070066308E0,-6.766902447E0,-7.609176159E0,-1.311266780E0,1.026693484E1
1.072471256E0,-6.795616150E0,-7.647460938E0,-1.371087432E0,1.032201232E1
1.074876203E0,-6.809973240E0,-7.678567886E0,-1.435693622E0,1.036326958E1
1.077281099E0,-6.793223381E0,-7.707281590E0,-1.497906923E0,1.038237923E1
1.079686047E0,-6.788437843E0,-7.740781307E0,-1.567298889E0,1.041436553E1
1.082090995E0,-6.762116909E0,-7.743174076E0,-1.651047587E0,1.041196081E1
1.084495943E0,-6.745367050E0,-7.740781307E0,-1.718046665E0,1.041015640E1
1.086900839E0,-6.714260101E0,-7.733603001E0,-1.777867198E0,1.039474463E1
1.089305787E0,-6.680760860E0,-7.719245911E0,-1.861616015E0,1.037713531E1
1.091710735E0,-6.637690067E0,-7.688138962E0,-1.919043779E0,1.033678573E1
1.094115683E0,-6.597012043E0,-7.673782349E0,-1.964507341E0,1.030857859E1
1.096520578E0,-6.568298340E0,-7.635497093E0,-2.021935225E0,1.027285652E1
1.098925526E0,-6.551548481E0,-7.613961697E0,-2.060220242E0,1.025376554E1
1.101330474E0,-6.556334019E0,-7.590033531E0,-2.103291035E0,1.024782699E1
1.103735422E0,-6.556334019E0,-7.573283672E0,-2.139183521E0,1.024286325E1
1.106140318E0,-6.561119556E0,-7.573283672E0,-2.167897224E0,1.025196049E1
1.108545266E0,-6.568298340E0,-7.568498135E0,-2.172683001E0,1.025403621E1
1.110950214E0,-6.587440968E0,-7.590033531E0,-2.172683001E0,1.028219524E1
1.113355110E0,-6.613761902E0,-7.597211838E0,-2.182254314E0,1.030639161E1
1.115760058E0,-6.664011002E0,-7.628318787E0,-2.167897224E0,1.035857464E1
1.118165006E0,-6.668796539E0,-7.680960655E0,-2.148754835E0,1.039649706E1
1.120569953E0,-6.692724705E0,-7.719245911E0,-2.132004976E0,1.043670286E1
1.122974849E0,-6.707081795E0,-7.767102242E0,-2.134397745E0,1.048181650E1
1.125379797E0,-6.697510719E0,-7.805387497E0,-2.112862349E0,1.049975767E1
1.127784745E0,-6.716653347E0,-7.860422611E0,-2.079362869E0,1.054625174E1
1.130189641E0,-6.726224422E0,-7.896314621E0,-2.053041935E0,1.057397091E1
1.132594589E0,-6.733402729E0,-7.946564198E0,-2.026720762E0,1.061104104E1
1.134999537E0,-6.721438885E0,-8.018348694E0,-1.983649969E0,1.064924991E1
1.137404485E0,-6.721438885E0,-8.070990562E0,-1.933400750E0,1.067973164E1
1.139809381E0,-6.714260101E0,-8.104490280E0,-1.890329838E0,1.069286670E1
1.142214328E0,-6.709474564E0,-8.140382767E0,-1.856830359E0,1.071124173E1
1.144619276E0,-6.699903488E0,-8.152346611E0,-1.832902193E0,1.071022840E1
1.147024224E0,-6.719046116E0,-8.173882484E0,-1.801795483E0,1.073333138E1
1.149429120E0,-6.735795975E0,-8.178668022E0,-1.768295884E0,1.074190059E1
1.151834068E0,-6.711867332E0,-8.185846329E0,-1.768295884E0,1.073238620E1
1.154239016E0,-6.731009960E0,-8.204988480E0,-1.725225091E0,1.075196413E1
1.156643964E0,-6.740581512E0,-8.221738815E0,-1.689332843E0,1.076504871E1
1.159048860E0,-6.747759819E0,-8.257631302E0,-1.651047587E0,1.079104700E1
1.161453808E0,-6.766902447E0,-8.319844246E0,-1.622333765E0,1.084632398E1
1.163858756E0,-6.766902447E0,-8.386843681E0,-1.605584025E0,1.089532082E1
1.166263651E0,-6.788437843E0,-8.453842163E0,-1.586441398E0,1.095751486E1
1.168668599E0,-6.788437843E0,-8.520841599E0,-1.560120344E0,1.100552613E1
1.171073547E0,-6.800402164E0,-8.628518105E0,-1.536192179E0,1.109309157E1
1.173478495E0,-6.826723099E0,-8.712266922E0,-1.533799291E0,1.117408983E1
1.175883391E0,-6.817151546E0,-8.831908226E0,-1.536192179E0,1.126215097E1
1.178288339E0,-6.812366009E0,-8.949156761E0,-1.531406522E0,1.135081245E1
1.180693287E0,-6.800402164E0,-9.078369141E0,-1.529013634E0,1.144552919E1
1.183098183E0,-6.776473522E0,-9.217152596E0,-1.517049551E0,1.154027446E1
1.185503131E0,-6.747759819E0,-9.346364975E0,-1.512263894E0,1.162642434E1
1.187908078E0,-6.711867332E0,-9.501898766E0,-1.524227977E0,1.173279652E1
1.190313026E0,-6.652047157E0,-9.623932838E0,-1.509871125E0,1.179616571E1
1.192717922E0,-6.594619274E0,-9.789037704E0,-1.505085468E0,1.189872030E1
1.195122870E0,-6.518048763E0,-9.925428391E0,-1.488335729E0,1.196721487E1
1.197527818E0,-6.446264267E0,-1.005703354E1,-1.462014675E0,1.203477185E1
1.199932766E0,-6.367300987E0,-1.016710377E1,-1.445264935E0,1.208310025E1
1.202337662E0,-6.276373863E0,-1.027956581E1,-1.445264935E0,1.213058667E1
1.204742610E0,-6.199803352E0,-1.035852909E1,-1.430907965E0,1.215665185E1
1.207147558E0,-6.082555294E0,-1.044467068E1,-1.418943882E0,1.216971759E1
1.209552506E0,-5.972485542E0,-1.049491978E1,-1.416550994E0,1.215814712E1
1.211957401E0,-5.888736725E0,-1.053559780E1,-1.397408366E0,1.215025890E1
1.214362349E0,-5.800201893E0,-1.054995537E1,-1.383051515E0,1.211844593E1
1.216767297E0,-5.690132141E0,-1.054277611E1,-1.373480201E0,1.205878019E1
1.219172193E0,-5.601597786E0,-1.051884842E1,-1.363908887E0,1.199517892E1
1.221577141E0,-5.515456200E0,-1.048295593E1,-1.351944804E0,1.192226392E1
1.223982089E0,-5.450850010E0,-1.042792130E1,-1.347159147E0,1.184348539E1
1.226387037E0,-5.359922886E0,-1.038006496E1,-1.328016520E0,1.175747209E1
1.228791933E0,-5.312066078E0,-1.032263660E1,-1.332802176E0,1.168551386E1
1.231196881E0,-5.257031441E0,-1.022213840E1,-1.328016520E0,1.157117630E1
1.233601828E0,-5.194818020E0,-1.014796066E1,-1.313659668E0,1.147575451E1
1.236006724E0,-5.154139996E0,-1.003071213E1,-1.311266780E0,1.135340325E1
1.238411672E0,-5.125426292E0,-9.906285286E0,-1.311266780E0,1.123048990E1
1.240816620E0,-5.113461971E0,-9.781859398E0,-1.289731383E0,1.111286073E1
1.243221568E0,-5.084748268E0,-9.657432556E0,-1.275374413E0,1.098850529E1
1.245626464E0,-5.077569485E0,-9.523433685E0,-1.268195987E0,1.086673006E1
1.248031412E0,-5.077569485E0,-9.394221306E0,-1.246660590E0,1.075115196E1
1.250436360E0,-5.070391178E0,-9.288937569E0,-1.222732425E0,1.065308887E1
1.252841256E0,-5.108676434E0,-9.169296265E0,-1.210768223E0,1.056600817E1
1.255246203E0,-5.134997368E0,-9.071190834E0,-1.189232826E0,1.049137626E1
1.257651151E0,-5.139782906E0,-8.997013092E0,-1.170090318E0,1.042749847E1
1.260056099E0,-5.142175674E0,-8.918049812E0,-1.143769264E0,1.035769237E1
1.262460995E0,-5.123033047E0,-8.846264839E0,-1.138983607E0,1.028587152E1
1.264865943E0,-5.075176716E0,-8.769695282E0,-1.141376376E0,1.019645596E1
1.267270891E0,-5.065605640E0,-8.709874153E0,-1.150947690E0,1.014134847E1
1.269675839E0,-5.058426857E0,-8.635697365E0,-1.170090318E0,1.007631195E1
1.272080735E0,-5.044070244E0,-8.599804878E0,-1.182054400E0,1.003974806E1
1.274485683E0,-5.029713154E0,-8.573483467E0,-1.198804140E0,1.001198105E1
1.276890631E0,-5.015356064E0,-8.547162056E0,-1.201196909E0,9.982517201E0
1.279295578E0,-5.017749310E0,-8.537590981E0,-1.189232826E0,9.974093573E0
1.281700474E0,-5.036891460E0,-8.525627136E0,-1.189232826E0,9.973508328E0
1.284105422E0,-5.051248550E0,-8.528019905E0,-1.198804140E0,9.983955468E0
1.286510370E0,-5.072783947E0,-8.559126854E0,-1.191625714E0,1.002056692E1
1.288915266E0,-5.084748268E0,-8.595019341E0,-1.182054400E0,1.005615608E1
1.291320214E0,-5.106283665E0,-8.609375954E0,-1.177268744E0,1.007876227E1
1.293725162E0,-5.134997368E0,-8.626125336E0,-1.184447169E0,1.010846929E1
1.296130058E0,-5.154139996E0,-8.650053978E0,-1.191625714E0,1.013945584E1
1.298535006E0,-5.139782906E0,-8.657232285E0,-1.177268744E0,1.013661683E1
1.300939953E0,-5.123033047E0,-8.659625053E0,-1.172483087E0,1.012962439E1
1.303344901E0,-5.094319344E0,-8.664410591E0,-1.174875975E0,1.011950760E1
1.305749849E0,-5.079962254E0,-8.683553696E0,-1.177268744E0,1.012897245E1
1.308154745E0,-5.046463013E0,-8.697910309E0,-1.172483087E0,1.012398880E1
1.310559693E0,-4.996213913E0,-8.714659691E0,-1.158126116E0,1.011181008E1
1.312964641E0,-4.953142643E0,-8.724231720E0,-1.155733347E0,1.009859202E1
1.315369537E0,-4.914857864E0,-8.721838951E0,-1.158126116E0,1.007807316E1
1.317774485E0,-4.895715237E0,-8.695517540E0,-1.138983607E0,1.004377104E1
1.320179433E0,-4.871787071E0,-8.666803360E0,-1.131805062E0,1.000643655E1
1.322584381E0,-4.833501816E0,-8.638090134E0,-1.093519926E0,9.958670935E0
1.324989276E0,-4.790431023E0,-8.618947029E0,-1.076770186E0,9.919370510E0
1.327394224E0,-4.742574692E0,-8.590232849E0,-1.045663476E0,9.868005230E0
1.329799172E0,-4.716253281E0,-8.549555779E0,-1.024128079E0,9.817677288E0
1.332204068E0,-4.692325115E0,-8.504091263E0,-1.000199914E0,9.764111996E0
1.334609016E0,-4.666004181E0,-8.449056625E0,-9.547362328E-1,9.698952219E0
1.337013964E0,-4.646861553E0,-8.417949677E0,-9.427721500E-1,9.661470819E0
1.339418912E0,-4.625326157E0,-8.362915039E0,-8.997012973E-1,9.599033932E0
1.341823808E0,-4.601397991E0,-8.295916557E0,-8.518448472E-1,9.524743285E0
1.344228756E0,-4.577469826E0,-8.240880966E0,-8.063812256E-1,9.461268403E0
1.346633703E0,-4.570291042E0,-8.190631866E0,-7.585247755E-1,9.410067503E0
1.349038651E0,-4.548755646E0,-8.140382767E0,-7.298108935E-1,9.353589335E0
1.351443547E0,-4.558327198E0,-8.090133667E0,-6.987041831E-1,9.312185411E0
1.353848495E0,-4.541577339E0,-8.066205025E0,-6.723831892E-1,9.281254623E0
1.356253443E0,-4.536791801E0,-8.039883614E0,-6.436693072E-1,9.254000138E0
1.358658339E0,-4.529613495E0,-8.037490845E0,-6.317051649E-1,9.247578543E0
1.361063287E0,-4.505684853E0,-8.013563156E0,-6.269195080E-1,9.214739200E0
1.363468235E0,-4.479363918E0,-7.968099594E0,-6.221339107E-1,9.162006486E0
1.365873183E0,-4.474578381E0,-7.963313580E0,-6.077769399E-1,9.154540276E0
1.368278078E0,-4.469792843E0,-7.970492363E0,-5.958128572E-1,9.157662886E0
1.370683026E0,-4.441078663E0,-7.944170952E0,-5.934200287E-1,9.120590942E0
1.373087974E0,-4.436293125E0,-7.948956966E0,-5.958128572E-1,9.122587709E0
1.375492870E0,-4.429114819E0,-7.920242786E0,-5.910272002E-1,9.093768032E0
1.377897818E0,-4.398007870E0,-7.917850018E0,-6.173482537E-1,9.078322587E0
1.380302766E0,-4.378865242E0,-7.934599876E0,-6.269195080E-1,9.084347201E0
1.382707714E0,-4.374079704E0,-7.963313580E0,-6.723831892E-1,9.110380650E0
1.385112610E0,-4.350151539E0,-7.982456207E0,-6.843472719E-1,9.116564962E0
1.387517558E0,-4.316651821E0,-8.001599312E0,-7.226324677E-1,9.120376756E0
1.389922506E0,-4.297509670E0,-8.020741463E0,-7.561319470E-1,9.130860775E0
1.392327453E0,-4.268795490E0,-8.051848412E0,-8.015955687E-1,9.148630129E0
1.394732349E0,-4.259224415E0,-8.092526436E0,-8.327022791E-1,9.182775714E0
1.397137297E0,-4.201796532E0,-8.135597229E0,-8.781659007E-1,9.198598356E0
1.399542245E0,-4.182653904E0,-8.181060791E0,-9.212366939E-1,9.234339521E0
1.401947141E0,-4.180261135E0,-8.216953278E0,-9.499505758E-1,9.267972293E0
1.404352089E0,-4.165904045E0,-8.281558990E0,-9.810572863E-1,9.322094680E0
1.406757037E0,-4.130012035E0,-8.341380119E0,-9.762716293E-1,9.358884976E0
1.409161985E0,-4.103690624E0,-8.396414757E0,-9.714859724E-1,9.395948196E0
1.411566881E0,-4.065405846E0,-8.432307243E0,-9.547362328E-1,9.409721112E0
1.413971828E0,-4.031906128E0,-8.470592499E0,-9.810572863E-1,9.432373917E0
1.416376776E0,-3.986442566E0,-8.506484032E0,-9.834501147E-1,9.445589925E0
1.418781672E0,-3.960121393E0,-8.537590981E0,-9.595218897E-1,9.460111176E0
1.421186620E0,-3.919443607E0,-8.556734085E0,-9.427721500E-1,9.458781936E0
1.423591568E0,-3.888336897E0,-8.575876236E0,-9.355936646E-1,9.462565854E0
1.425996516E0,-3.862015724E0,-8.604590416E0,-9.284151793E-1,9.477135455E0
1.428401412E0,-3.823730469E0,-8.628518105E0,-9.236295223E-1,9.482896755E0
1.430806360E0,-3.799802303E0,-8.678768158E0,-9.236295223E-1,9.519065384E0
1.433211308E0,-3.771088600E0,-8.724231720E0,-9.140582681E-1,9.548237055E0
1.435616256E0,-3.754338741E0,-8.752944946E0,-8.973084688E-1,9.566308959E0
1.438021151E0,-3.730410576E0,-8.776873589E0,-8.973084688E-1,9.578864001E0
1.440426099E0,-3.716053486E0,-8.807980537E0,-9.092726111E-1,9.602934517E0
1.442831047E0,-3.704089403E0,-8.807980537E0,-9.140582681E-1,9.598765648E0
1.445235943E0,-3.713660717E0,-8.822337151E0,-9.236295223E-1,9.616548248E0
1.447640891E0,-3.704089403E0,-8.843872070E0,-9.355936646E-1,9.633778439E0
1.450045839E0,-3.718446493E0,-8.863015175E0,-9.523434043E-1,9.658511287E0
1.452450787E0,-3.737588882E0,-8.891729355E0,-9.690931439E-1,9.693893083E0
1.454855683E0,-3.751945972E0,-8.901300430E0,-1.004985452E0,9.711860980E0
1.457260631E0,-3.763910055E0,-8.910871506E0,-1.028913736E0,9.727759936E0
1.459665578E0,-3.775874138E0,-8.937192917E0,-1.040877819E0,9.757769693E0
1.462070474E0,-3.806980848E0,-8.963513374E0,-1.069591761E0,9.797025147E0
1.464475422E0,-3.838087559E0,-8.975478172E0,-1.091127157E0,9.822458094E0
1.466880370E0,-3.862015724E0,-9.016156197E0,-1.112662554E0,9.871385717E0
1.469285318E0,-3.890729666E0,-9.028120041E0,-1.131805062E0,9.895742090E0
1.471690214E0,-3.940979004E0,-9.049654961E0,-1.148554921E0,9.937139871E0
1.474095162E0,-3.979264021E0,-9.066405296E0,-1.158126116E0,9.968726260E0
1.476500110E0,-4.017549038E0,-9.087940216E0,-1.155733347E0,1.000335330E1
1.478905058E0,-4.031906128E0,-9.095118523E0,-1.162911773E0,1.001647701E1
1.481309953E0,-4.051048756E0,-9.116654396E0,-1.146162033E0,1.004181611E1
1.483714901E0,-4.074976921E0,-9.121439934E0,-1.131805062E0,1.005420738E1
1.486119849E0,-4.098905087E0,-9.145368576E0,-1.129412293E0,1.008535381E1
1.488524745E0,-4.122833252E0,-9.162117958E0,-1.115055323E0,1.010868477E1
1.490929693E0,-4.125226021E0,-9.164510727E0,-1.093519926E0,1.010947736E1
1.493334641E0,-4.134797573E0,-9.176474571E0,-1.074377418E0,1.012217977E1
1.495739589E0,-4.141975880E0,-9.159725189E0,-1.048056364E0,1.010717329E1
1.498144485E0,-4.156332970E0,-9.133403778E0,-1.026520967E0,1.008701708E1
1.500549433E0,-4.153940201E0,-9.133403778E0,-1.012163997E0,1.008458029E1
1.502954381E0,-4.170690060E0,-9.128618240E0,-9.738788009E-1,1.008339062E1
1.505359276E0,-4.175475597E0,-9.095118523E0,-9.403793216E-1,1.005187001E1
1.507764224E0,-4.175475597E0,-9.085547447E0,-8.877372146E-1,1.003841851E1
1.510169172E0,-4.180261135E0,-9.044869423E0,-8.374879360E-1,9.999281578E0
1.512574120E0,-4.180261135E0,-8.999405861E0,-7.920243144E-1,9.954455863E0
1.514979016E0,-4.156332970E0,-8.970691681E0,-7.561319470E-1,9.915651694E0
1.517383964E0,-4.165904045E0,-8.920442581E0,-7.250252366E-1,9.871915414E0
1.519788912E0,-4.146761417E0,-8.874979019E0,-6.915257573E-1,9.820340662E0
1.522193860E0,-4.151547432E0,-8.824729919E0,-6.340979934E-1,9.773089813E0
1.524598756E0,-4.134797573E0,-8.764909744E0,-6.029912829E-1,9.709984155E0
1.527003703E0,-4.120440483E0,-8.719446182E0,-5.527420044E-1,9.659828944E0
1.529408651E0,-4.141975880E0,-8.676374435E0,-5.072783828E-1,9.627708392E0
1.531813547E0,-4.156332970E0,-8.611768723E0,-4.737788737E-1,9.574034192E0
1.534218495E0,-4.151547432E0,-8.547162056E0,-4.307080805E-1,9.511826047E0
1.536623443E0,-4.168296814E0,-8.516056061E0,-3.900300860E-1,9.489469565E0
1.539028391E0,-4.168296814E0,-8.484949112E0,-3.469592929E-1,9.459885861E0
1.541433287E0,-4.173082829E0,-8.461020470E0,-2.895315289E-1,9.438607746E0
1.543838235E0,-4.177868366E0,-8.432307243E0,-2.416750938E-1,9.413649472E0
1.546243183E0,-4.201796532E0,-8.413164139E0,-2.129612118E-1,9.406475291E0
1.548648078E0,-4.194618225E0,-8.398807526E0,-1.794617027E-1,9.389728239E0
1.551053026E0,-4.199403763E0,-8.394021988E0,-1.411765367E-1,9.386933893E0
1.553457974E0,-4.211368084E0,-8.365307808E0,-1.148554832E-1,9.366279285E0
1.555862922E0,-4.204189301E0,-8.367700577E0,-8.853443712E-2,9.364905710E0
1.558267818E0,-4.223331928E0,-8.362915039E0,-5.024927482E-2,9.368959682E0
1.560672766E0,-4.232903481E0,-8.353343964E0,-1.435693540E-2,9.364616029E0
1.563077714E0,-4.254438877E0,-8.355736732E0,9.571290575E-3,9.376496047E0
1.565482610E0,-4.261617184E0,-8.379665375E0,4.546362907E-2,9.401182891E0
1.567887558E0,-4.278367043E0,-8.365307808E0,5.742774159E-2,9.396068179E0
1.570292506E0,-4.278367043E0,-8.382058144E0,7.178468257E-2,9.411082632E0
1.572697453E0,-4.283152580E0,-8.389236450E0,8.374879509E-2,9.419750427E0
1.575102349E0,-4.290330887E0,-8.403593063E0,1.052841991E-1,9.436016122E0
1.577507297E0,-4.302295208E0,-8.417949677E0,1.076770201E-1,9.454269678E0
1.579912245E0,-4.326223373E0,-8.425128937E0,1.220339537E-1,9.471742108E0
1.582317141E0,-4.323830605E0,-8.441878319E0,9.092725813E-2,9.485203657E0
1.584722089E0,-4.333401680E0,-8.456234932E0,9.332008660E-2,9.502367494E0
1.587127037E0,-4.323830605E0,-8.472985268E0,7.178468257E-2,9.512735857E0
1.589531985E0,-4.319045067E0,-8.482556343E0,3.828516230E-2,9.518895848E0
1.591936881E0,-4.304687977E0,-8.494520187E0,1.914258115E-2,9.523002585E0
1.594341828E0,-4.273581028E0,-8.501698494E0,7.178467698E-3,9.515378270E0
1.596746776E0,-4.242474556E0,-8.494520187E0,-1.914258115E-2,9.495042391E0
1.599151724E0,-4.189832687E0,-8.504091263E0,-3.110669367E-2,9.480254943E0
1.601556620E0,-4.149154663E0,-8.518448830E0,-5.024927482E-2,9.475335343E0
1.603961568E0,-4.115654945E0,-8.516056061E0,-7.178468257E-2,9.458698616E0
1.606366516E0,-4.063013077E0,-8.506484032E0,-9.332008660E-2,9.427462781E0
1.608771464E0,-4.019941807E0,-8.511270523E0,-1.220339537E-1,9.413636403E0
1.611176360E0,-3.969692707E0,-8.494520187E0,-1.459621787E-1,9.377453725E0
1.613581308E0,-3.933800459E0,-8.496912956E0,-1.674975902E-1,9.364847638E0
1.615986256E0,-3.897907972E0,-8.494520187E0,-1.866401732E-1,9.348015529E0
1.618391151E0,-3.871587038E0,-8.475378036E0,-2.081755698E-1,9.320115671E0
1.620796099E0,-3.840480328E0,-8.453842163E0,-2.560320199E-1,9.288826022E0
1.623201047E0,-3.809373617E0,-8.451449394E0,-2.751746178E-1,9.274375736E0
1.625605995E0,-3.809373617E0,-8.441878319E0,-2.847459018E-1,9.265943942E0
1.628010891E0,-3.809373617E0,-8.446663857E0,-3.086741269E-1,9.271069915E0
1.630415839E0,-3.785445452E0,-8.449056625E0,-3.182454109E-1,9.263770035E0
1.632820787E0,-3.778266907E0,-8.432307243E0,-3.302095234E-1,9.245979915E0
1.635225683E0,-3.763910055E0,-8.413164139E0,-3.373879790E-1,9.222916045E0
1.637630631E0,-3.775874138E0,-8.405985832E0,-3.397808075E-1,9.221348834E0
1.640035578E0,-3.780659676E0,-8.384450912E0,-3.493520916E-1,9.204045392E0
1.642440526E0,-3.785445452E0,-8.372486115E0,-3.445664644E-1,9.194935946E0
1.644845422E0,-3.787838221E0,-8.372486115E0,-3.469592929E-1,9.196011248E0
1.647250370E0,-3.799802303E0,-8.365307808E0,-3.373879790E-1,9.194058022E0
1.649655318E0,-3.790230989E0,-8.365307808E0,-3.541377485E-1,9.190736598E0
1.652060214E0,-3.795016766E0,-8.389236450E0,-3.541377485E-1,9.214491522E0
1.654465162E0,-3.799802303E0,-8.415556908E0,-3.613162339E-1,9.240705873E0
1.656870110E0,-3.828516245E0,-8.461020470E0,-3.565305769E-1,9.293735421E0
1.659275058E0,-3.878765583E0,-8.484949112E0,-3.469592929E-1,9.335928697E0
1.661679953E0,-3.914657831E0,-8.537590981E0,-3.469592929E-1,9.398690677E0
1.664084901E0,-3.964907169E0,-8.585447311E0,-3.493520916E-1,9.463215166E0
1.666489849E0,-4.005585194E0,-8.616554260E0,-3.278166950E-1,9.507743363E0
1.668894797E0,-4.024727821E0,-8.633303642E0,-3.158525825E-1,9.530589104E0
1.671299693E0,-4.017549038E0,-8.676374435E0,-3.086741269E-1,9.566370959E0
1.673704641E0,-4.010370731E0,-8.705088615E0,-2.943171859E-1,9.588965732E0
1.676109589E0,-4.000799656E0,-8.695517540E0,-2.847459018E-1,9.575985767E0
1.678514485E0,-3.974478483E0,-8.712266922E0,-2.703889608E-1,9.579832166E0
1.680919433E0,-3.940979004E0,-8.712266922E0,-2.775674164E-1,9.566188065E0
1.683324381E0,-3.950550079E0,-8.700303078E0,-2.751746178E-1,9.559175730E0
1.685729328E0,-3.957728624E0,-8.681160927E0,-2.656033039E-1,9.544459965E0
1.688134224E0,-3.960121393E0,-8.671588898E0,-2.632105052E-1,9.536681563E0
1.690539172E0,-3.948157310E0,-8.666803360E0,-2.536391914E-1,9.527106563E0
1.692944120E0,-3.924229145E0,-8.652446747E0,-2.608176768E-1,9.504337691E0
1.695349016E0,-3.905086517E0,-8.650053978E0,-2.679961324E-1,9.494469783E0
1.697753964E0,-3.893122435E0,-8.640482903E0,-2.536391914E-1,9.480436695E0
1.700158912E0,-3.883551121E0,-8.626125336E0,-2.727817893E-1,9.463953588E0
1.702563860E0,-3.862015724E0,-8.597412109E0,-2.847459018E-1,9.429302236E0
1.704968756E0,-3.878765583E0,-8.587840080E0,-2.967100143E-1,9.427823531E0
1.707373703E0,-3.869194269E0,-8.571090698E0,-3.038884699E-1,9.408857967E0
1.709778651E0,-3.859622955E0,-8.537590981E0,-3.014956415E-1,9.374329242E0
1.712183547E0,-3.847658873E0,-8.525627136E0,-3.134597540E-1,9.358902387E0
1.714588495E0,-3.840480328E0,-8.504091263E0,-3.206382394E-1,9.336576794E0
1.716993443E0,-3.835694790E0,-8.470592499E0,-3.182454109E-1,9.304019128E0
1.719398391E0,-3.828516245E0,-8.451449394E0,-3.086741269E-1,9.283308312E0
1.721803287E0,-3.830909014E0,-8.425128937E0,-3.254238665E-1,9.260915838E0
1.724208235E0,-3.830909014E0,-8.384450912E0,-3.230310678E-1,9.223840309E0
1.726613183E0,-3.833301783E0,-8.350951195E0,-3.134597540E-1,9.194065773E0
1.729018131E0,-3.818944931E0,-8.358129501E0,-3.038884699E-1,9.194292651E0
1.731423026E0,-3.821337700E0,-8.338987350E0,-3.038884699E-1,9.177890828E0
1.733827974E0,-3.799802303E0,-8.319844246E0,-2.991028428E-1,9.151380679E0
1.736232922E0,-3.785445452E0,-8.319844246E0,-2.679961324E-1,9.144464308E0
1.738637818E0,-3.785445452E0,-8.348558426E0,-2.536391914E-1,9.170188542E0
1.741042766E0,-3.775874138E0,-8.365307808E0,-2.321037948E-1,9.180929822E0
1.743447714E0,-3.795016766E0,-8.374878883E0,-2.081755698E-1,9.196960674E0
1.745852662E0,-3.814159393E0,-8.401200294E0,-1.866401732E-1,9.228369998E0
1.748257558E0,-3.852444410E0,-8.427521706E0,-1.842473447E-1,9.268138816E0
1.750662506E0,-3.873979807E0,-8.449056625E0,-1.698904037E-1,9.296404690E0
1.753067453E0,-3.900300980E0,-8.472985268E0,-1.579262912E-1,9.328921041E0
1.755472349E0,-3.919443607E0,-8.489734650E0,-1.459621787E-1,9.351948330E0
1.757877297E0,-3.933800459E0,-8.511270523E0,-1.483550072E-1,9.377554115E0
1.760282245E0,-3.924229145E0,-8.525627136E0,-1.316052526E-1,9.386331146E0
1.762687193E0,-3.917050600E0,-8.530412674E0,-1.316052526E-1,9.387680530E0
1.765092089E0,-3.907479286E0,-8.530412674E0,-1.196411327E-1,9.383530719E0
1.767497037E0,-3.878765583E0,-8.532805443E0,-9.810572863E-2,9.373538068E0
1.769901985E0,-3.847658873E0,-8.535198212E0,-6.939185411E-2,9.362633312E0
1.772306881E0,-3.850051641E0,-8.530412674E0,-4.785645381E-2,9.359120059E0
1.774711828E0,-3.840480328E0,-8.539983749E0,-2.632104978E-2,9.363829579E0
1.777116776E0,-3.828516245E0,-8.516056061E0,2.392822644E-3,9.337063414E0
1.779521724E0,-3.821337700E0,-8.499305725E0,3.589234129E-2,9.318911304E0
1.781926620E0,-3.816552162E0,-8.492127419E0,7.178468257E-2,9.310609622E0
1.784331568E0,-3.838087559E0,-8.487341881E0,9.810572863E-2,9.315337516E0
1.786736516E0,-3.842873096E0,-8.489734650E0,1.268195957E-1,9.319836440E0
1.789141412E0,-3.862015724E0,-8.489734650E0,1.507478207E-1,9.328101885E0
1.791546360E0,-3.900300980E0,-8.516056061E0,1.531406492E-1,9.367977937E0
1.793951308E0,-3.943371773E0,-8.559126854E0,1.435693651E-1,9.424937432E0
1.796356256E0,-3.974478483E0,-8.585447311E0,1.459621787E-1,9.461907298E0
1.798761151E0,-4.039084435E0,-8.630910873E0,1.244267747E-1,9.530073851E0
1.801166099E0,-4.074976921E0,-8.690732002E0,9.092725813E-2,9.599089926E0
1.803571047E0,-4.108476639E0,-8.762516975E0,6.460621208E-2,9.678091651E0
1.805975995E0,-4.165904045E0,-8.839086533E0,2.871387079E-2,9.771644270E0
1.808380891E0,-4.218546391E0,-8.910871506E0,-1.914258115E-2,9.859012683E0
1.810785839E0,-4.249652863E0,-9.001798630E0,-6.460621208E-2,9.954702506E0
1.813190787E0,-4.311866283E0,-9.102297783E0,-1.124626622E-1,1.007256986E1
1.815595683E0,-4.371686935E0,-9.186046600E0,-1.674975902E-1,1.017463288E1
1.818000631E0,-4.433900356E0,-9.276973724E0,-2.368894368E-1,1.028483497E1
1.820405578E0,-4.505684853E0,-9.363115311E0,-3.086741269E-1,1.039540302E1
1.822810526E0,-4.563112736E0,-9.451649666E0,-3.924229145E-1,1.050284128E1
1.825215422E0,-4.606183529E0,-9.513862610E0,-4.594219327E-1,1.058024466E1
1.827620370E0,-4.615755081E0,-9.573683739E0,-5.479564071E-1,1.064240910E1
1.830025318E0,-4.630111694E0,-9.638289452E0,-6.436693072E-1,1.071208981E1
1.832430214E0,-4.615755081E0,-9.690931320E0,-7.561319470E-1,1.076062639E1
1.834835162E0,-4.618147850E0,-9.717252731E0,-8.733802438E-1,1.079421527E1
1.837240110E0,-4.603790760E0,-9.738788605E0,-9.930213690E-1,1.081780866E1
1.839645058E0,-4.594219685E0,-9.743574142E0,-1.107876897E0,1.082919585E1
1.842049953E0,-4.575077057E0,-9.750752449E0,-1.232303619E0,1.084099053E1
1.844454901E0,-4.563112736E0,-9.765109062E0,-1.356730461E0,1.086370427E1
1.846859849E0,-4.553541660E0,-9.765109062E0,-1.497906923E0,1.087822696E1
1.849264745E0,-4.532006264E0,-9.731609344E0,-1.631905079E0,1.085847206E1
1.851669693E0,-4.515256405E0,-9.731609344E0,-1.773081541E0,1.087361849E1
1.854074641E0,-4.503292084E0,-9.702896118E0,-1.909472466E0,1.086609027E1
1.856479589E0,-4.493721008E0,-9.657432556E0,-2.043470621E0,1.084598102E1
1.858884485E0,-4.462614059E0,-9.623932838E0,-2.165504456E0,1.082702254E1
1.861289433E0,-4.460221291E0,-9.573683739E0,-2.261217356E0,1.080102302E1
1.863694381E0,-4.455435753E0,-9.521040916E0,-2.347358942E0,1.077085056E1
1.866099276E0,-4.474578381E0,-9.480362892E0,-2.431107759E0,1.076147839E1
1.868504224E0,-4.474578381E0,-9.454042435E0,-2.505285263E0,1.075533469E1
1.870909172E0,-4.481756687E0,-9.408578873E0,-2.572284460E0,1.073425110E1
1.873314120E0,-4.493721008E0,-9.391828537E0,-2.603390932E0,1.073208349E1
1.875719016E0,-4.524827480E0,-9.360722542E0,-2.644068956E0,1.072792109E1
1.878123964E0,-4.553541660E0,-9.332008362E0,-2.656033039E0,1.071800510E1
1.880528912E0,-4.543970108E0,-9.336793900E0,-2.667997360E0,1.072108178E1
1.882933808E0,-4.563112736E0,-9.308079720E0,-2.648854733E0,1.069947556E1
1.885338756E0,-4.579862595E0,-9.298508644E0,-2.598605394E0,1.068597934E1
1.887743703E0,-4.567898273E0,-9.265008926E0,-2.536391973E0,1.063669917E1
1.890148651E0,-4.570291042E0,-9.269794464E0,-2.502892494E0,1.063396071E1
1.892553547E0,-4.579862595E0,-9.241081238E0,-2.467000246E0,1.060466002E1
1.894958495E0,-4.577469826E0,-9.226723671E0,-2.423929453E0,1.058116693E1
1.897363443E0,-4.579862595E0,-9.202795982E0,-2.376072884E0,1.055046528E1
1.899768339E0,-4.589433670E0,-9.166903496E0,-2.323430777E0,1.051158179E1
1.902173287E0,-4.637290478E0,-9.135796547E0,-2.249253273E0,1.048934611E1
1.904578235E0,-4.658825874E0,-9.111868858E0,-2.146361828E0,1.045646602E1
1.906983183E0,-4.704289436E0,-9.107083321E0,-2.072184324E0,1.045768873E1
1.909388078E0,-4.747360229E0,-9.119047165E0,-1.995614052E0,1.047267520E1
1.911793026E0,-4.790431023E0,-9.123832703E0,-1.928615093E0,1.048389759E1
1.914197974E0,-4.819144726E0,-9.152546883E0,-1.849651933E0,1.050782959E1
1.916602922E0,-4.867001057E0,-9.176474571E0,-1.804188251E0,1.054279280E1
1.919007818E0,-4.917250633E0,-9.209974289E0,-1.758724689E0,1.058754423E1
1.921412766E0,-4.996213913E0,-9.293723106E0,-1.722832322E0,1.069128588E1
1.923817714E0,-5.087141037E0,-9.403793335E0,-1.715653777E0,1.082837942E1
1.926222610E0,-5.204389095E0,-9.530612946E0,-1.727617979E0,1.099558606E1
1.928627558E0,-5.309673309E0,-9.693324089E0,-1.751546144E0,1.119022236E1
1.931032506E0,-5.426921844E0,-9.868000984E0,-1.801795483E0,1.140505989E1
1.933437453E0,-5.548955917E0,-1.006660461E1,-1.849651933E0,1.164253634E1
1.935842349E0,-5.649454117E0,-1.026281643E1,-1.909472466E0,1.186961743E1
1.938247297E0,-5.714060307E0,-1.045663452E1,-1.998006940E0,1.208237238E1
1.940652245E0,-5.781059742E0,-1.066241741E1,-2.055434704E0,1.230173194E1
1.943057141E0,-5.812166214E0,-1.083709335E1,-2.127219439E0,1.247994115E1
1.945462089E0,-5.797809124E0,-1.099741268E1,-2.206182480E0,1.262635804E1
1.947867037E0,-5.747560024E0,-1.112423229E1,-2.251646042E0,1.272214212E1
1.950271985E0,-5.670989513E0,-1.123669529E1,-2.282752752E0,1.279196635E1
1.952676881E0,-5.608776093E0,-1.131805134E1,-2.289931297E0,1.283746239E1
1.955081828E0,-5.532206059E0,-1.138504982E1,-2.266003132E0,1.285921590E1
1.957486776E0,-5.414957523E0,-1.143290615E1,-2.244467735E0,1.284798597E1
1.959891724E0,-5.249852657E0,-1.142812061E1,-2.182254314E0,1.276421277E1
1.962296620E0,-5.070391178E0,-1.143769264E1,-2.105684042E0,1.268714251E1
1.964701568E0,-4.845465660E0,-1.141615677E1,-2.000399828E0,1.256219616E1
1.967106516E0,-4.591826439E0,-1.137787151E1,-1.880758643E0,1.241281931E1
1.969511412E0,-4.350151539E0,-1.132044411E1,-1.770688772E0,1.225608469E1
1.971916360E0,-4.106083870E0,-1.125583744E1,-1.651047587E0,1.209461696E1
1.974321308E0,-3.873979807E0,-1.118405342E1,-1.521835208E0,1.193343005E1
1.976726256E0,-3.658625841E0,-1.110748291E1,-1.375872970E0,1.177517499E1
1.979131151E0,-3.471985579E0,-1.103569794E1,-1.225125194E0,1.163366858E1
1.981536099E0,-3.309273720E0,-1.096391296E1,-1.069591761E0,1.150229136E1
1.983941047E0,-3.182454109E0,-1.089212894E1,-9.475577474E-1,1.138702563E1
1.986345943E0,-3.081955671E0,-1.080838013E1,-8.183453679E-1,1.126894941E1
1.988750891E0,-3.002992392E0,-1.071506023E1,-6.939185858E-1,1.114952923E1
1.991155839E0,-2.938386202E0,-1.061695385E1,-5.742774606E-1,1.103102974E1
1.993560787E0,-2.880958557E0,-1.050449181E1,-4.809573591E-1,1.090300831E1
1.995965683E0,-2.857030153E0,-1.038963604E1,-3.756731451E-1,1.078184996E1
1.998370631E0,-2.828316450E0,-1.025803089E1,-2.823530734E-1,1.064454297E1
2.000775578E0,-2.823530674E0,-1.011446095E1,-1.962114573E-1,1.050300646E1
2.003180474E0,-2.845066071E0,-9.982855797E0,-1.100698411E-1,1.038094052E1
2.005585422E0,-2.912065268E0,-9.829715729E0,-5.024927482E-2,1.025211980E1
2.007990370E0,-2.981456995E0,-9.681360245E0,7.178467698E-3,1.013004805E1
2.010395318E0,-3.065205812E0,-9.523433685E0,5.024927482E-2,1.000468894E1
2.012800214E0,-3.136990547E0,-9.375079155E0,9.332008660E-2,9.886431484E0
2.015205162E0,-3.223132133E0,-9.217152596E0,1.363908947E-1,9.765402459E0
2.017610110E0,-3.297309637E0,-9.075976372E0,1.603191197E-1,9.657706776E0
2.020015058E0,-3.376272678E0,-8.908478737E0,1.818545163E-1,9.528550869E0
2.022419953E0,-3.436093330E0,-8.757730484E0,1.746760458E-1,9.409308812E0
2.024824901E0,-3.486342669E0,-8.616554260E0,1.698904037E-1,9.296690555E0
2.027229849E0,-3.548556089E0,-8.477770805E0,1.387837082E-1,9.191523762E0
2.029634745E0,-3.562912941E0,-8.353343964E0,9.571290761E-2,9.081952706E0
2.032039693E0,-3.584448338E0,-8.236095428E0,6.939185411E-2,8.982558267E0
2.034444641E0,-3.634697676E0,-8.140382767E0,1.914258115E-2,8.915000012E0
2.036849589E0,-3.663411379E0,-8.035098076E0,-3.349951655E-2,8.830883661E0
2.039254485E0,-3.699303865E0,-7.941778183E0,-7.657032460E-2,8.761424131E0
2.041659433E0,-3.720839262E0,-7.862815380E0,-1.363908947E-1,8.699834078E0
2.044064381E0,-3.751945972E0,-7.793423176E0,-2.009970993E-1,8.651875127E0
2.046469276E0,-3.804588079E0,-7.740781307E0,-2.727817893E-1,8.629542028E0
2.048874224E0,-3.835694790E0,-7.709674358E0,-3.397808075E-1,8.617835240E0
2.051279172E0,-3.893122435E0,-7.688138962E0,-4.331009090E-1,8.628525910E0
2.053684120E0,-3.931407690E0,-7.697710514E0,-5.216353536E-1,8.659261922E0
2.056089016E0,-3.972085476E0,-7.692924976E0,-6.101697683E-1,8.679335508E0
2.058493964E0,-4.039084435E0,-7.733603001E0,-7.058826685E-1,8.753347290E0
2.060898912E0,-4.115654945E0,-7.776673794E0,-7.848458290E-1,8.833530093E0
2.063303808E0,-4.149154663E0,-7.841279984E0,-8.709874153E-1,8.914021274E0
2.065708756E0,-4.194618225E0,-7.881958008E0,-9.714859724E-1,8.981306647E0
2.068113703E0,-4.242474556E0,-7.927421570E0,-1.079162955E0,9.055782450E0
2.070518651E0,-4.297509670E0,-7.960920811E0,-1.189232826E0,9.124643787E0
2.072923547E0,-4.299902439E0,-7.996813297E0,-1.292124271E0,9.171028788E0
2.075328495E0,-4.292723656E0,-8.032705307E0,-1.397408366E0,9.214368186E0
2.077733443E0,-4.304687977E0,-8.066205025E0,-1.485942841E0,9.262938422E0
2.080138339E0,-4.299902439E0,-8.087740898E0,-1.584048629E0,9.295693835E0
2.082543287E0,-4.297509670E0,-8.121239662E0,-1.670190215E0,9.338771781E0
2.084948235E0,-4.311866283E0,-8.183453560E0,-1.768295884E0,9.417429232E0
2.087353183E0,-4.302295208E0,-8.219346046E0,-1.861616015E0,9.462188313E0
2.089758078E0,-4.309473515E0,-8.264809608E0,-1.945364833E0,9.521716451E0
2.092163026E0,-4.319045067E0,-8.322237015E0,-2.014756680E0,9.590256707E0
2.094567974E0,-4.323830605E0,-8.379665375E0,-2.081755638E0,9.656500889E0
2.096972870E0,-4.328616142E0,-8.449056625E0,-2.136790514E0,9.730845249E0
2.099377818E0,-4.316651821E0,-8.520841599E0,-2.184647083E0,9.798515570E0
2.101782766E0,-4.307080746E0,-8.590232849E0,-2.242074728E0,9.867620992E0
2.104187714E0,-4.302295208E0,-8.642875671E0,-2.277967215E0,9.919585604E0
2.106592610E0,-4.273581028E0,-8.709874153E0,-2.325823545E0,9.976715779E0
2.108997558E0,-4.237689018E0,-8.762516975E0,-2.371287346E0,1.001811937E1
2.111402506E0,-4.211368084E0,-8.819944382E0,-2.397608280E0,1.006357618E1
2.113807401E0,-4.177868366E0,-8.882157326E0,-2.416750908E0,1.010880744E1
2.116212349E0,-4.146761417E0,-8.946763992E0,-2.462214470E0,1.016379438E1
2.118617297E0,-4.137190342E0,-9.018548965E0,-2.502892494E0,1.023303670E1
2.121022245E0,-4.120440483E0,-9.102297783E0,-2.545963287E0,1.031076058E1
2.123427141E0,-4.086941242E0,-9.154939651E0,-2.584248543E0,1.035347040E1
2.125832089E0,-4.060619831E0,-9.212367058E0,-2.612962246E0,1.040114955E1
2.128237037E0,-4.034298897E0,-9.267401695E0,-2.641676188E0,1.044694955E1
2.130641985E0,-3.998406649E0,-9.317651749E0,-2.658426046E0,1.048203792E1
2.133046881E0,-3.967299938E0,-9.367900848E0,-2.682354212E0,1.052102938E1
2.135451828E0,-3.940979004E0,-9.406186104E0,-2.691925526E0,1.054770665E1
2.137856776E0,-3.902693748E0,-9.425328255E0,-2.699103832E0,1.055239275E1
2.140261672E0,-3.854837179E0,-9.449256897E0,-2.699103832E0,1.055620136E1
2.142666620E0,-3.809373617E0,-9.470791817E0,-2.694318295E0,1.055777325E1
2.145071568E0,-3.773481369E0,-9.485149384E0,-2.703889608E0,1.056021967E1
2.147476464E0,-3.732803345E0,-9.485149384E0,-2.694318295E0,1.054330265E1
2.149881412E0,-3.723232031E0,-9.501898766E0,-2.675175667E0,1.055012331E1
2.152286360E0,-3.699303865E0,-9.523433685E0,-2.660818815E0,1.055749000E1
2.154691308E0,-3.641875982E0,-9.521040916E0,-2.624926329E0,1.052633455E1
2.157096203E0,-3.617947817E0,-9.513862610E0,-2.572284460E0,1.049856064E1
2.159501151E0,-3.584448338E0,-9.492327690E0,-2.510071039E0,1.045241654E1
2.161906099E0,-3.567698479E0,-9.494720459E0,-2.423929453E0,1.042850052E1
2.164311047E0,-3.546163082E0,-9.466006279E0,-2.321038008E0,1.037148808E1
2.166715943E0,-3.538984776E0,-9.458827972E0,-2.239681959E0,1.034456452E1
2.169120891E0,-3.531806231E0,-9.456435204E0,-2.136790514E0,1.031812462E1
2.171525839E0,-3.515056372E0,-9.449256897E0,-2.033899307E0,1.028498049E1
2.173930735E0,-3.495913982E0,-9.418149948E0,-1.902294040E0,1.022456286E1
2.176335683E0,-3.476771355E0,-9.406186104E0,-1.785045743E0,1.018580701E1
2.178740631E0,-3.464807272E0,-9.370293617E0,-1.663011789E0,1.012782801E1
2.181145578E0,-3.457628727E0,-9.332008362E0,-1.540977836E0,1.007056052E1
2.183550474E0,-3.445664644E0,-9.305686951E0,-1.426122308E0,1.002508051E1
2.185955422E0,-3.436093330E0,-9.253045082E0,-1.308874011E0,9.956843468E0
2.188360370E0,-3.426522017E0,-9.207581520E0,-1.203589797E0,9.897941148E0
2.190765266E0,-3.440878868E0,-9.138189316E0,-1.083948612E0,9.824515049E0
2.193170214E0,-3.450450182E0,-9.083154678E0,-9.930213690E-1,9.767056712E0
2.195575162E0,-3.455235958E0,-9.032905579E0,-8.781659007E-1,9.710984197E0
2.197980110E0,-3.469592810E0,-8.965906143E0,-7.848458290E-1,9.645803762E0
2.200385006E0,-3.471985579E0,-8.920442581E0,-7.106683254E-1,9.598647257E0
2.202789953E0,-3.491128206E0,-8.855836868E0,-6.317051649E-1,9.540066782E0
2.205194901E0,-3.481556892E0,-8.791230202E0,-5.838487148E-1,9.473533986E0
2.207599797E0,-3.500699520E0,-8.755337715E0,-5.192425251E-1,9.443540037E0
2.210004745E0,-3.529413462E0,-8.685946465E0,-4.761717021E-1,9.387713505E0
2.212409693E0,-3.529413462E0,-8.642875671E0,-4.474578202E-1,9.346458033E0
2.214814641E0,-3.534198999E0,-8.592626572E0,-4.019941986E-1,9.299752325E0
2.217219537E0,-3.507878065E0,-8.528019905E0,-3.684946895E-1,9.228657560E0
2.219624485E0,-3.476771355E0,-8.463413239E0,-3.421736360E-1,9.156111920E0
2.222029433E0,-3.457628727E0,-8.405985832E0,-3.445664644E-1,9.095851817E0
2.224434328E0,-3.438486099E0,-8.362915039E0,-3.302095234E-1,9.048235902E0
2.226839276E0,-3.412165165E0,-8.300702095E0,-3.421736360E-1,8.981180834E0
2.229244224E0,-3.381058455E0,-8.243273735E0,-3.756731451E-1,8.917636932E0
2.231649172E0,-3.352344513E0,-8.204988480E0,-3.876372576E-1,8.871883246E0
2.234054068E0,-3.304488182E0,-8.152346611E0,-4.187439680E-1,8.806573904E0
2.236459016E0,-3.251846075E0,-8.140382767E0,-4.474578202E-1,8.777274804E0
2.238863964E0,-3.208775282E0,-8.097311974E0,-5.000999570E-1,8.724265011E0
2.241268912E0,-3.172882795E0,-8.094919205E0,-5.694918036E-1,8.713163781E0
2.243673808E0,-3.141776085E0,-8.097311974E0,-6.197410822E-1,8.707542545E0
2.246078756E0,-3.096312523E0,-8.099704742E0,-6.867401004E-1,8.698504476E0
2.248483703E0,-3.069991350E0,-8.099704742E0,-7.489534616E-1,8.694308201E0
2.250888599E0,-3.038884640E0,-8.104490280E0,-8.039883971E-1,8.692754448E0
2.253293547E0,-2.979064226E0,-8.123632431E0,-8.781659007E-1,8.697091634E0
2.255698495E0,-2.950350285E0,-8.133204460E0,-9.451649189E-1,8.703270553E0
2.258103391E0,-2.897708178E0,-8.133204460E0,-9.978070259E-1,8.691452487E0
2.260508339E0,-2.888136864E0,-8.140382767E0,-1.088734269E0,8.705889296E0
2.262913287E0,-2.845066071E0,-8.116454124E0,-1.148554921E0,8.677004489E0
2.265318235E0,-2.835494757E0,-8.123632431E0,-1.213161111E0,8.689372490E0
2.267723131E0,-2.828316450E0,-8.121239662E0,-1.282552958E0,8.694759898E0
2.270128078E0,-2.816352367E0,-8.123632431E0,-1.344766378E0,8.702507750E0
2.272533026E0,-2.813959360E0,-8.121239662E0,-1.418943882E0,8.711274457E0
2.274937974E0,-2.809173822E0,-8.104490280E0,-1.469193101E0,8.702456471E0
2.277342870E0,-2.799602509E0,-8.075776100E0,-1.526620865E0,8.682540244E0
2.279747818E0,-2.799602509E0,-8.035098076E0,-1.581655741E0,8.654606298E0
2.282152766E0,-2.806781054E0,-8.027919769E0,-1.646261930E0,8.662314590E0
2.284557662E0,-2.818745136E0,-8.020741463E0,-1.713261008E0,8.672536021E0
2.286962610E0,-2.813959360E0,-7.992027760E0,-1.777867198E0,8.657464222E0
2.289367558E0,-2.816352367E0,-8.003992081E0,-1.825723648E0,8.679227888E0
2.291772506E0,-2.828316450E0,-8.011170387E0,-1.873580098E0,8.699915362E0
2.294177401E0,-2.830709219E0,-8.011170387E0,-1.899901152E0,8.706399373E0
2.296582349E0,-2.809173822E0,-8.008777618E0,-1.935793519E0,8.705129123E0
2.298987297E0,-2.823530674E0,-8.011170387E0,-1.988435626E0,8.723820991E0
2.301392193E0,-2.825923443E0,-8.008777618E0,-2.012363911E0,8.727884667E0
2.303797141E0,-2.833101988E0,-8.008777618E0,-2.036292076E0,8.735758195E0
2.306202089E0,-2.857030153E0,-8.015955925E0,-2.055434704E0,8.754597793E0
2.308607037E0,-2.864208698E0,-8.027919769E0,-2.084148407E0,8.774671610E0
2.311011933E0,-2.888136864E0,-8.042277336E0,-2.110469580E0,8.801911221E0
2.313416881E0,-2.904886723E0,-8.035098076E0,-2.134397745E0,8.806635095E0
2.315821828E0,-2.947957516E0,-8.049455643E0,-2.129612207E0,8.832861247E0
2.318226724E0,-2.971885681E0,-8.054241180E0,-2.148754835E0,8.849861741E0
2.320631672E0,-3.002992392E0,-8.070990562E0,-2.163111687E0,8.879071130E0
2.323036620E0,-3.043670416E0,-8.075776100E0,-2.158325911E0,8.896092398E0
2.325441568E0,-3.115455151E0,-8.087740898E0,-2.163111687E0,8.932897951E0
2.327846464E0,-3.153740168E0,-8.109275818E0,-2.146361828E0,8.961768823E0
2.330251412E0,-3.192025423E0,-8.130811691E0,-2.124826431E0,8.989661419E0
2.332656360E0,-3.220739365E0,-8.142775536E0,-2.141576290E0,9.014671624E0
2.335061256E0,-3.268595695E0,-8.171489716E0,-2.146361828E0,9.058908935E0
2.337466203E0,-3.302095175E0,-8.204988480E0,-2.132004976E0,9.097863140E0
2.339871151E0,-3.361915827E0,-8.216953278E0,-2.127219439E0,9.129395475E0
2.342276099E0,-3.416950703E0,-8.231309891E0,-2.120040894E0,9.161036405E0
2.344680995E0,-3.457628727E0,-8.252845764E0,-2.098505497E0,9.190668362E0
2.347085943E0,-3.483949661E0,-8.267202377E0,-2.062613010E0,9.205374127E0
2.349490891E0,-3.507878065E0,-8.288737297E0,-2.041077614E0,9.228996279E0
2.351895839E0,-3.531806231E0,-8.295916557E0,-2.005185366E0,9.236701529E0
2.354300735E0,-3.572484255E0,-8.327022552E0,-1.978864312E0,9.274580977E0
2.356705683E0,-3.570091486E0,-8.336593628E0,-1.945364833E0,9.275170665E0
2.359110631E0,-3.572484255E0,-8.350951195E0,-1.923829436E0,9.284511258E0
2.361515526E0,-3.596412420E0,-8.382058144E0,-1.887937069E0,9.314364573E0
2.363920474E0,-3.591626883E0,-8.415556908E0,-1.840080619E0,9.333128008E0
2.366325422E0,-3.601198196E0,-8.429914474E0,-1.816152334E0,9.345078694E0
2.368730318E0,-3.617947817E0,-8.477770805E0,-1.763510346E0,9.384674367E0
2.371135266E0,-3.629911900E0,-8.499305725E0,-1.715653777E0,9.399889685E0
2.373540214E0,-3.622733593E0,-8.535198212E0,-1.667797327E0,9.421006057E0
2.375945162E0,-3.644268990E0,-8.544769287E0,-1.624726534E0,9.430456773E0
2.378350058E0,-3.653840065E0,-8.539983749E0,-1.584048629E0,9.422901874E0
2.380755006E0,-3.661018610E0,-8.551948547E0,-1.531406522E0,9.427835762E0
2.383159953E0,-3.689732552E0,-8.556734085E0,-1.473978758E0,9.434216336E0
2.385564849E0,-3.704089403E0,-8.563912392E0,-1.440479279E0,9.441178650E0
2.387969797E0,-3.713660717E0,-8.544769287E0,-1.380658627E0,9.418629217E0
2.390374745E0,-3.732803345E0,-8.542376518E0,-1.335195065E0,9.417471171E0
2.392779693E0,-3.747160196E0,-8.523234367E0,-1.287338614E0,9.399147532E0
2.395184589E0,-3.773481369E0,-8.494520187E0,-1.256231904E0,9.379453793E0
2.397589537E0,-3.802195072E0,-8.458627701E0,-1.208375454E0,9.352285346E0
2.399994485E0,-3.821337700E0,-8.446663857E0,-1.155733347E0,9.342615891E0
2.402399381E0,-3.852444410E0,-8.417949677E0,-1.129412293E0,9.326241302E0
2.404804328E0,-3.873979807E0,-8.410771370E0,-1.091127157E0,9.324127469E0
2.407209276E0,-3.931407690E0,-8.377271652E0,-1.081555843E0,9.316888418E0
2.409614224E0,-3.967299938E0,-8.331808090E0,-1.064806104E0,9.289365258E0
2.412019120E0,-3.996013880E0,-8.293522835E0,-1.069591761E0,9.267937984E0
2.414424068E0,-4.036691666E0,-8.252845764E0,-1.067198873E0,9.248959738E0
2.416829016E0,-4.082155228E0,-8.216953278E0,-1.074377418E0,9.237781081E0
2.419233964E0,-4.106083870E0,-8.216953278E0,-1.069591761E0,9.247825282E0
2.421638860E0,-4.144368649E0,-8.193024635E0,-1.064806104E0,9.243119398E0
2.424043808E0,-4.168296814E0,-8.173882484E0,-1.067198873E0,9.237205564E0
2.426448756E0,-4.187439442E0,-8.149953842E0,-1.076770186E0,9.225824123E0
2.428853651E0,-4.187439442E0,-8.147561073E0,-1.081555843E0,9.224270354E0
2.431258599E0,-4.208974838E0,-8.152346611E0,-1.088734269E0,9.239132360E0
2.433663547E0,-4.189832687E0,-8.159524918E0,-1.095912814E0,9.237617102E0
2.436068495E0,-4.187439442E0,-8.173882484E0,-1.107876897E0,9.250642960E0
2.438473391E0,-4.189832687E0,-8.181060791E0,-1.115055323E0,9.258930931E0
2.440878339E0,-4.201796532E0,-8.176275253E0,-1.122233868E0,9.260992386E0
2.443283287E0,-4.197010994E0,-8.185846329E0,-1.127019525E0,9.267855977E0
2.445688183E0,-4.206582069E0,-8.200202942E0,-1.160519004E0,9.288997005E0
2.448093131E0,-4.197010994E0,-8.224131584E0,-1.170090318E0,9.307005584E0
2.450498078E0,-4.192225456E0,-8.224131584E0,-1.182054400E0,9.306360577E0
2.452903026E0,-4.192225456E0,-8.231309891E0,-1.222732425E0,9.317955322E0
2.455307922E0,-4.170690060E0,-8.255238533E0,-1.249053478E0,9.332939162E0
2.457712870E0,-4.158725739E0,-8.281558990E0,-1.282552958E0,9.355434847E0
2.460117818E0,-4.158725739E0,-8.303094864E0,-1.311266780E0,9.378475604E0
2.462522714E0,-4.165904045E0,-8.329415321E0,-1.354337573E0,9.411065103E0
2.464927662E0,-4.146761417E0,-8.362915039E0,-1.380658627E0,9.436111299E0
2.467332610E0,-4.127619267E0,-8.367700577E0,-1.423729420E0,9.438361045E0
2.469737558E0,-4.122833252E0,-8.379665375E0,-1.450050473E0,9.450883143E0
2.472142453E0,-4.125226021E0,-8.401200294E0,-1.490728498E0,9.477337578E0
2.474547401E0,-4.103690624E0,-8.432307243E0,-1.524227977E0,9.500913278E0
2.476952349E0,-4.103690624E0,-8.451449394E0,-1.543370605E0,9.520990832E0
2.479357245E0,-4.098905087E0,-8.470592499E0,-1.593619823E0,9.544191130E0
2.481762193E0,-4.098905087E0,-8.489734650E0,-1.607976794E0,9.563587543E0
2.484167141E0,-4.103690624E0,-8.499305725E0,-1.631905079E0,9.578182956E0
2.486572089E0,-4.103690624E0,-8.504091263E0,-1.648654819E0,9.585296430E0
2.488976985E0,-4.103690624E0,-8.511270523E0,-1.667797327E0,9.594975278E0
2.491381933E0,-4.094119549E0,-8.508877754E0,-1.698904037E0,9.594221722E0
2.493786881E0,-4.096512318E0,-8.484949112E0,-1.732403636E0,9.580031156E0
2.496191776E0,-4.101297855E0,-8.472985268E0,-1.749153376E0,9.574531893E0
2.498596724E0,-4.120440483E0,-8.489734650E0,-1.756331801E0,9.598871058E0
2.501001672E0,-4.110869408E0,-8.480163574E0,-1.763510346E0,9.587616506E0
2.503406620E0,-4.149154663E0,-8.453842163E0,-1.775474429E0,9.583070551E0
2.505811516E0,-4.161118507E0,-8.453842163E0,-1.765903115E0,9.586488844E0
2.508216464E0,-4.165904045E0,-8.461020470E0,-1.768295884E0,9.595337109E0
2.510621412E0,-4.175475597E0,-8.463413239E0,-1.785045743E0,9.604704494E0
2.513026308E0,-4.161118507E0,-8.468199730E0,-1.785045743E0,9.602692446E0
2.515431256E0,-4.182653904E0,-8.468199730E0,-1.794616938E0,9.613825997E0
2.517836203E0,-4.175475597E0,-8.475378036E0,-1.782652855E0,9.614805278E0
2.520241151E0,-4.189832687E0,-8.489734650E0,-1.773081541E0,9.631931817E0
2.522646047E0,-4.197010994E0,-8.508877754E0,-1.765903115E0,9.650612195E0
2.525050995E0,-4.185046673E0,-8.554341316E0,-1.780260086E0,9.688173047E0
2.527455943E0,-4.197010994E0,-8.573483467E0,-1.770688772E0,9.708494156E0
2.529860839E0,-4.204189301E0,-8.611768723E0,-1.765903115E0,9.744546270E0
2.532265787E0,-4.211368084E0,-8.635697365E0,-1.770688772E0,9.769658584E0
2.534670735E0,-4.192225456E0,-8.659625053E0,-1.770688772E0,9.782596745E0
2.537075683E0,-4.225724697E0,-8.724231720E0,-1.768295884E0,9.853722071E0
2.539480578E0,-4.223331928E0,-8.767302513E0,-1.758724689E0,9.889147510E0
2.541885526E0,-4.220939159E0,-8.788837433E0,-1.746760488E0,9.905107925E0
2.544290474E0,-4.216153622E0,-8.817551613E0,-1.737189293E0,9.926882413E0
2.546695370E0,-4.225724697E0,-8.855836868E0,-1.725225091E0,9.962880982E0
2.549100318E0,-4.232903481E0,-8.884550095E0,-1.718046665E0,9.990214542E0
2.551505266E0,-4.232903481E0,-8.908478737E0,-1.713261008E0,1.001068072E1
2.553910214E0,-4.244867325E0,-8.963513374E0,-1.713261008E0,1.006472721E1
2.556315110E0,-4.249652863E0,-9.011369705E0,-1.679761529E0,1.010375832E1
2.558720058E0,-4.256831646E0,-9.047262192E0,-1.663011789E0,1.013603360E1
2.561125006E0,-4.261617184E0,-9.054440498E0,-1.655833244E0,1.014327647E1
2.563529901E0,-4.275974274E0,-9.073583603E0,-1.643869162E0,1.016445676E1
2.565934849E0,-4.271188259E0,-9.092725754E0,-1.619940877E0,1.017570239E1
2.568339797E0,-4.266402721E0,-9.092725754E0,-1.586441398E0,1.016841434E1
2.570744745E0,-4.259224415E0,-9.073583603E0,-1.548156261E0,1.014237151E1
2.573149641E0,-4.256831646E0,-9.066405296E0,-1.524227977E0,1.013131737E1
2.575554589E0,-4.259224415E0,-9.044869423E0,-1.488335729E0,1.010770987E1
2.577959537E0,-4.252045631E0,-9.001798630E0,-1.457229018E0,1.006159963E1
2.580364485E0,-4.254438877E0,-8.989834785E0,-1.433300734E0,1.004846907E1
2.582769381E0,-4.242474556E0,-8.958727837E0,-1.406979680E0,1.001184232E1
2.585174328E0,-4.252045631E0,-8.932407379E0,-1.368694544E0,9.987047531E0
2.587579276E0,-4.247260094E0,-8.908478737E0,-1.335195065E0,9.959064091E0
2.589984172E0,-4.240081787E0,-8.870193481E0,-1.316052437E0,9.919204604E0
2.592389120E0,-4.247260094E0,-8.846264839E0,-1.284945726E0,9.896802788E0
2.594794068E0,-4.237689018E0,-8.827122688E0,-1.263410330E0,9.872806533E0
2.597198964E0,-4.208974838E0,-8.796015739E0,-1.215553880E0,9.826644051E0
2.599603912E0,-4.187439442E0,-8.755337715E0,-1.198804140E0,9.778942629E0
2.602008860E0,-4.185046673E0,-8.724231720E0,-1.170090318E0,9.746586382E0
2.604413808E0,-4.170690060E0,-8.678768158E0,-1.129412293E0,9.694908171E0
2.606818703E0,-4.185046673E0,-8.662017822E0,-1.119840980E0,9.684999341E0
2.609223651E0,-4.206582069E0,-8.630910873E0,-1.100698471E0,9.664341278E0
2.611628599E0,-4.228117466E0,-8.621339798E0,-1.069591761E0,9.661702943E0
2.614033547E0,-4.254438877E0,-8.599804878E0,-1.028913736E0,9.649640282E0
2.616438443E0,-4.309473515E0,-8.628518105E0,-1.000199914E0,9.696560551E0
2.618843391E0,-4.364508629E0,-8.678768158E0,-9.714859724E-1,9.762875463E0
2.621248339E0,-4.436293125E0,-8.714659691E0,-9.499505758E-1,9.824886580E0
2.623653235E0,-4.532006264E0,-8.810373306E0,-9.355936646E-1,9.951738244E0
2.626058183E0,-4.661218643E0,-8.944371223E0,-9.260223508E-1,1.012848721E1
2.628463131E0,-4.802394867E0,-9.128618240E0,-9.212366939E-1,1.035583625E1
2.630868026E0,-4.934000492E0,-9.305686951E0,-9.188438654E-1,1.057281630E1
2.633272974E0,-5.067998409E0,-9.533005714E0,-9.236295223E-1,1.083586163E1
2.635677922E0,-5.182853699E0,-9.753145218E0,-9.308080077E-1,1.108387196E1
2.638082870E0,-5.266602516E0,-9.980463028E0,-9.403793216E-1,1.132391529E1
2.640487766E0,-5.319244862E0,-1.020060253E1,-9.284151793E-1,1.154160356E1
2.642892714E0,-5.324030399E0,-1.044227791E1,-9.451649189E-1,1.175924336E1
2.645297662E0,-5.302495003E0,-1.065523911E1,-9.619147182E-1,1.194051312E1
2.647702558E0,-5.257031441E0,-1.085384369E1,-9.690931439E-1,1.209881994E1
2.650107506E0,-5.235496044E0,-1.105484104E1,-9.714859724E-1,1.227044067E1
2.652512453E0,-5.173282623E0,-1.122233772E1,-9.738788009E-1,1.239565073E1
2.654917401E0,-5.127819061E0,-1.136351490E1,-9.690931439E-1,1.250452481E1
2.657322297E0,-5.060820103E0,-1.147837067E1,-9.451649189E-1,1.258007273E1
2.659727245E0,-4.984249592E0,-1.158126163E1,-9.355936646E-1,1.264293085E1
2.662132193E0,-4.893322468E0,-1.166501045E1,-9.379864931E-1,1.268451388E1
2.664537141E0,-4.811966419E0,-1.172004509E1,-9.332008362E-1,1.270375305E1
2.666942037E0,-4.725824833E0,-1.177747345E1,-9.379864931E-1,1.272486227E1
2.669346985E0,-4.625326157E0,-1.180618668E1,-9.379864931E-1,1.271453910E1
2.671751933E0,-4.541577339E0,-1.179661560E1,-9.475577474E-1,1.267611652E1
2.674156828E0,-4.445864677E0,-1.176550865E1,-9.475577474E-1,1.261311905E1
2.676561776E0,-4.366901398E0,-1.171047401E1,-9.547362328E-1,1.253461410E1
2.678966724E0,-4.295116425E0,-1.163868904E1,-9.714859724E-1,1.244390986E1
2.681371672E0,-4.237689018E0,-1.155972576E1,-1.016949654E0,1.235392466E1
2.683776568E0,-4.194618225E0,-1.148315620E1,-1.040877819E0,1.226952017E1
2.686181516E0,-4.132404804E0,-1.138265705E1,-1.071984529E0,1.215692403E1
2.688586464E0,-4.098905087E0,-1.125583744E1,-1.103091240E0,1.202961802E1
2.690991360E0,-4.094119549E0,-1.113619614E1,-1.131805062E0,1.191879448E1
2.693396308E0,-4.067798615E0,-1.101655579E1,-1.138983607E0,1.179867665E1
2.695801256E0,-4.060619831E0,-1.088495064E1,-1.155733347E0,1.167503762E1
2.698206203E0,-4.034298897E0,-1.073180962E1,-1.153340459E0,1.152291193E1
2.700611099E0,-4.027120590E0,-1.055474091E1,-1.138983607E0,1.135418599E1
2.703016047E0,-4.027120590E0,-1.038485050E1,-1.131805062E0,1.119570466E1
2.705420995E0,-4.003192425E0,-1.022213840E1,-1.122233868E0,1.103526493E1
2.707825943E0,-3.972085476E0,-1.006660461E1,-1.093519926E0,1.087702980E1
2.710230839E0,-3.962514400E0,-9.908679008E0,-1.050449133E0,1.072319371E1
2.712635787E0,-3.964907169E0,-9.726823807E0,-1.004985452E0,1.055185225E1
2.715040735E0,-3.952943087E0,-9.578469276E0,-9.571290612E-1,1.040619665E1
2.717445631E0,-3.914657831E0,-9.442078590E0,-8.925228715E-1,1.026031145E1
2.719850578E0,-3.905086517E0,-9.300901413E0,-8.159525394E-1,1.012038766E1
2.722255526E0,-3.914657831E0,-9.162117958E0,-7.465606928E-1,9.991311439E0
2.724660474E0,-3.926621914E0,-9.047262192E0,-6.963114142E-1,9.887171608E0
2.727065370E0,-3.924229145E0,-8.982656479E0,-6.388836503E-1,9.823230839E0
2.729470318E0,-3.926621914E0,-8.934800148E0,-5.934200287E-1,9.777584603E0
2.731875266E0,-3.936193228E0,-8.915657043E0,-5.551348329E-1,9.761697205E0
2.734280162E0,-3.943371773E0,-8.906085968E0,-5.168496966E-1,9.753752192E0
2.736685110E0,-3.912265062E0,-8.920442581E0,-4.881358147E-1,9.752865750E0
2.739090058E0,-3.921836376E0,-8.970691681E0,-4.570291340E-1,9.801172656E0
2.741494953E0,-3.902693748E0,-9.013762474E0,-4.522434771E-1,9.832774613E0
2.743899901E0,-3.876372576E0,-9.061619759E0,-4.618147612E-1,9.866736536E0
2.746304849E0,-3.859622955E0,-9.140582085E0,-4.737788737E-1,9.933347705E0
2.748709797E0,-3.828516245E0,-9.217152596E0,-4.977070987E-1,9.993055137E0
2.751114693E0,-3.806980848E0,-9.300901413E0,-5.240281820E-1,1.006352204E1
2.753519641E0,-3.790230989E0,-9.408578873E0,-5.599204898E-1,1.015877543E1
2.755924589E0,-3.747160196E0,-9.518648148E0,-6.245267391E-1,1.024870264E1
2.758329485E0,-3.689732552E0,-9.602396965E0,-6.867401004E-1,1.030978980E1
2.760734433E0,-3.629911900E0,-9.705288887E0,-7.489534616E-1,1.038892796E1
2.763139381E0,-3.570091486E0,-9.801001549E0,-8.231309652E-1,1.046339950E1
2.765544328E0,-3.479164124E0,-9.872786522E0,-8.829515576E-1,1.050505117E1
2.767949224E0,-3.388236761E0,-9.923035622E0,-9.308080077E-1,1.052678431E1
2.770354172E0,-3.261417150E0,-1.000199890E1,-9.930213690E-1,1.056706749E1
2.772759120E0,-3.113062143E0,-1.008096218E1,-1.043270707E0,1.060213979E1
2.775164016E0,-2.976671457E0,-1.012881851E1,-1.081555843E0,1.061241257E1
2.777568964E0,-2.823530674E0,-1.018863869E1,-1.115055323E0,1.063127613E1
2.779973912E0,-2.675175667E0,-1.022692394E1,-1.155733347E0,1.063401419E1
2.782378860E0,-2.526820660E0,-1.024128056E1,-1.174875975E0,1.061362255E1
2.784783756E0,-2.395215511E0,-1.026042366E1,-1.210768223E0,1.060562637E1
2.787188703E0,-2.268395901E0,-1.026760197E1,-1.222732425E0,1.058604481E1
2.789593651E0,-2.187039852E0,-1.028674412E1,-1.229910851E0,1.058833927E1
2.791998547E0,-2.088934183E0,-1.027478027E1,-1.270588875E0,1.056168319E1
2.794403495E0,-1.988435626E0,-1.027478027E1,-1.282552958E0,1.054371509E1
2.796808443E0,-1.919043779E0,-1.026042366E1,-1.287338614E0,1.051742665E1
2.799213391E0,-1.835294962E0,-1.024128056E1,-1.272981644E0,1.048201399E1
2.801618287E0,-1.725225091E0,-1.022931671E1,-1.253839016E0,1.044927913E1
2.804023235E0,-1.660618901E0,-1.021496010E1,-1.237089276E0,1.042273740E1
2.806428183E0,-1.605584025E0,-1.019103146E1,-1.220339537E0,1.038865972E1
2.808833078E0,-1.557727575E0,-1.018146038E1,-1.167697430E0,1.036591375E1
2.811238026E0,-1.514656782E0,-1.015513897E1,-1.115055323E0,1.032784494E1
2.813642974E0,-1.493121386E0,-1.012403297E1,-1.055234790E0,1.028780713E1
2.816047922E0,-1.512263894E0,-1.010728264E1,-9.714859724E-1,1.026586038E1
2.818452818E0,-1.543370605E0,-1.007617569E1,-8.925228715E-1,1.023268813E1
2.820857766E0,-1.591227055E0,-1.006181908E1,-8.231309652E-1,1.022006611E1
2.823262714E0,-1.651047587E0,-1.002353382E1,-7.393822074E-1,1.018547370E1
2.825667610E0,-1.710868239E0,-9.999606133E0,-6.317051649E-1,1.016455825E1
2.828072558E0,-1.777867198E0,-9.978070259E0,-5.264210105E-1,1.014888255E1
2.830477506E0,-1.864008784E0,-9.951749802E0,-4.331009090E-1,1.013407269E1
2.832882453E0,-1.954936147E0,-9.925428391E0,-3.469592929E-1,1.012206920E1
2.835287349E0,-2.045863390E0,-9.889535904E0,-2.392822653E-1,1.010176883E1
2.837692297E0,-2.122433662E0,-9.834501266E0,-1.244267747E-1,1.006169080E1
2.840097245E0,-2.210968018E0,-9.789037704E0,-3.110669367E-2,1.003566671E1
2.842502141E0,-2.318645239E0,-9.743574142E0,5.503492057E-2,1.001580659E1
2.844907089E0,-2.395215511E0,-9.710074425E0,1.244267747E-1,1.000190405E1
2.847312037E0,-2.438286304E0,-9.693324089E0,1.890329868E-1,9.997074846E0
2.849716985E0,-2.505285263E0,-9.655039787E0,2.799602449E-1,9.978708598E0
2.852121881E0,-2.569891453E0,-9.609575272E0,3.804588020E-1,9.954548100E0
2.854526828E0,-2.641676188E0,-9.549755096E0,4.283152521E-1,9.917647374E0
2.856931776E0,-2.689532757E0,-9.497113228E0,4.737788737E-1,9.881964002E0
2.859336672E0,-2.737389088E0,-9.466006279E0,5.312066078E-1,9.868168744E0
2.861741620E0,-2.785245657E0,-9.422935486E0,5.838487148E-1,9.843281255E0
2.864146568E0,-2.811566591E0,-9.377471924E0,6.149554253E-1,9.809182257E0
2.866551516E0,-2.811566591E0,-9.315258980E0,6.269195080E-1,9.750486379E0
2.868956412E0,-2.835494757E0,-9.272188187E0,6.460621357E-1,9.717556306E0
2.871361360E0,-2.845066071E0,-9.214759827E0,6.508477330E-1,9.665909289E0
2.873766308E0,-2.828316450E0,-9.142974854E0,6.628118753E-1,9.593366599E0
2.876171256E0,-2.809173822E0,-9.092725754E0,6.580262184E-1,9.539503011E0
2.878576151E0,-2.792423964E0,-9.032905579E0,6.484549642E-1,9.476893406E0
2.880981099E0,-2.770888567E0,-8.977870941E0,6.364908218E-1,9.417277242E0
2.883386047E0,-2.770888567E0,-8.925228119E0,6.029912829E-1,9.364887555E0
2.885790943E0,-2.746960402E0,-8.865407944E0,5.670989752E-1,9.298540246E0
2.888195891E0,-2.732603550E0,-8.819944382E0,5.335994363E-1,9.248960451E0
2.890600839E0,-2.713460922E0,-8.767302513E0,4.857429862E-1,9.190452099E0
2.893005735E0,-2.689532757E0,-8.714659691E0,4.402793646E-1,9.130866656E0
2.895410683E0,-2.677568436E0,-8.640482903E0,3.924229145E-1,9.054353277E0
2.897815631E0,-2.648854733E0,-8.590232849E0,3.445664644E-1,8.995957861E0
2.900220578E0,-2.656033039E0,-8.542376518E0,2.823530734E-1,8.950219625E0
2.902625474E0,-2.627319336E0,-8.508877754E0,2.177468538E-1,8.907930243E0
2.905030422E0,-2.629712105E0,-8.472985268E0,1.531406492E-1,8.873010603E0
2.907435370E0,-2.615355253E0,-8.427521706E0,1.004985496E-1,8.824585268E0
2.909840318E0,-2.600998163E0,-8.382058144E0,4.067798331E-2,8.776431215E0
2.912245214E0,-2.598605394E0,-8.362915039E0,-2.153540403E-2,8.757371850E0
2.914650162E0,-2.567498684E0,-8.341380119E0,-8.135596663E-2,8.727960276E0
2.917055110E0,-2.567498684E0,-8.319844246E0,-1.244267747E-1,8.707889514E0
2.919460006E0,-2.538784742E0,-8.293522835E0,-1.722832322E-1,8.675115589E0
2.921864953E0,-2.519642353E0,-8.276773453E0,-2.225325108E-1,8.654657538E0
2.924269901E0,-2.524427891E0,-8.255238533E0,-2.775674164E-1,8.637056390E0
2.926674849E0,-2.519642353E0,-8.250452042E0,-3.134597540E-1,8.632312176E0
2.929079745E0,-2.498106956E0,-8.260024071E0,-3.517449200E-1,8.636681105E0
2.931484693E0,-2.512463808E0,-8.248059273E0,-3.972085714E-1,8.631380585E0
2.933889641E0,-2.502892494E0,-8.248059273E0,-4.211367965E-1,8.629733994E0
2.936294537E0,-2.505285263E0,-8.245666504E0,-4.402793646E-1,8.629097071E0
2.938699485E0,-2.517249346E0,-8.248059273E0,-4.594219327E-1,8.635860962E0
2.941104433E0,-2.517249346E0,-8.236095428E0,-4.737788737E-1,8.625211800E0
2.943509381E0,-2.529213428E0,-8.245666504E0,-5.024927258E-1,8.639469637E0
2.945914276E0,-2.524427891E0,-8.260024071E0,-5.120640397E-1,8.652337453E0
2.948319224E0,-2.538784742E0,-8.267202377E0,-5.335994363E-1,8.664686461E0
2.950724172E0,-2.536391973E0,-8.267202377E0,-5.670989752E-1,8.666113353E0
2.953129068E0,-2.550748825E0,-8.279166222E0,-5.790630579E-1,8.682524225E0
2.955534016E0,-2.579462767E0,-8.291130066E0,-5.790630579E-1,8.702400816E0
2.957938964E0,-2.605783939E0,-8.283951759E0,-5.886343718E-1,8.704048317E0
2.960343912E0,-2.624926329E0,-8.300702095E0,-6.077769399E-1,8.727043389E0
2.962748808E0,-2.663211584E0,-8.310273170E0,-6.197410822E-1,8.748566461E0
2.965153756E0,-2.699103832E0,-8.322237015E0,-6.173482537E-1,8.770741662E0
2.967558703E0,-2.699103832E0,-8.317451477E0,-6.245267391E-1,8.766709429E0
2.969963599E0,-2.711068153E0,-8.307880402E0,-6.293123364E-1,8.761666583E0
2.972368547E0,-2.694318295E0,-8.331808090E0,-6.269195080E-1,8.779032133E0
2.974773495E0,-2.694318295E0,-8.329415321E0,-6.580262184E-1,8.779038055E0
2.977178443E0,-2.689532757E0,-8.355736732E0,-6.652047038E-1,8.803091508E0
2.979583339E0,-2.696711063E0,-8.343772888E0,-6.580262184E-1,8.793394969E0
2.981988287E0,-2.696711063E0,-8.362915039E0,-6.652047038E-1,8.812099398E0
2.984393235E0,-2.725425005E0,-8.386843681E0,-6.675975323E-1,8.843798667E0
2.986798131E0,-2.718246460E0,-8.386843681E0,-6.388836503E-1,8.839467352E0
2.989203078E0,-2.742174864E0,-8.415556908E0,-6.149554253E-1,8.872389262E0
2.991608026E0,-2.761317253E0,-8.417949677E0,-5.982056856E-1,8.879448168E0
2.994012922E0,-2.797209740E0,-8.432307243E0,-5.790630579E-1,8.903005212E0
2.996417870E0,-2.816352367E0,-8.444271088E0,-5.599204898E-1,8.919140419E0
2.998822818E0,-2.823530674E0,-8.461020470E0,-5.431707501E-1,8.936231159E0
3.001227766E0,-2.837887764E0,-8.475378036E0,-5.168496966E-1,8.952808131E0
3.003632662E0,-2.857030153E0,-8.496912956E0,-4.905286431E-1,8.977793127E0
3.006037610E0,-2.871387243E0,-8.504091263E0,-4.498506486E-1,8.987035023E0
3.008442558E0,-2.888136864E0,-8.530412674E0,-4.235295951E-1,9.016021975E0
3.010847453E0,-2.904886723E0,-8.551948547E0,-4.043870270E-1,9.040891532E0
3.013252401E0,-2.924029350E0,-8.563912392E0,-3.900300860E-1,9.057740699E0
3.015657349E0,-2.969492912E0,-8.599804878E0,-3.349951804E-1,9.104216269E0
3.018062297E0,-3.007778168E0,-8.616554260E0,-3.038884699E-1,9.131488653E0
3.020467193E0,-3.022135019E0,-8.645268440E0,-2.799602449E-1,9.162551185E0
3.022872141E0,-3.038884640E0,-8.673981667E0,-2.536391914E-1,9.194406487E0
3.025277089E0,-3.036491871E0,-8.707481384E0,-2.297109663E-1,9.224602000E0
3.027681985E0,-3.065205812E0,-8.736195564E0,-2.033899277E-1,9.260559760E0
3.030086933E0,-3.084348440E0,-8.729017258E0,-1.555334777E-1,9.259219095E0
3.032491881E0,-3.089133978E0,-8.745766640E0,-1.172483116E-1,9.276040643E0
3.034896828E0,-3.113062143E0,-8.752944946E0,-6.699903309E-2,9.290300857E0
3.037301724E0,-3.129812002E0,-8.772088051E0,-2.153540403E-2,9.313738010E0
3.039706672E0,-3.144168854E0,-8.776873589E0,3.828516230E-2,9.323131101E0
3.042111620E0,-3.141776085E0,-8.757730484E0,7.178468257E-2,9.304501773E0
3.044516568E0,-3.180061340E0,-8.776873589E0,1.100698411E-1,9.335867152E0
3.046921464E0,-3.206382275E0,-8.772088051E0,1.435693651E-1,9.340825886E0
3.049326412E0,-3.237488985E0,-8.736195564E0,1.794617027E-1,9.318511382E0
3.051731360E0,-3.275774240E0,-8.733802795E0,2.081755698E-1,9.330238218E0
3.054136256E0,-3.297309637E0,-8.740981102E0,2.344966233E-1,9.345158647E0
3.056541203E0,-3.345165968E0,-8.748159409E0,2.751746178E-1,9.369959950E0
3.058946151E0,-3.369094372E0,-8.757730484E0,2.847459018E-1,9.387743091E0
3.061351099E0,-3.414557934E0,-8.772088051E0,2.943171859E-1,9.417821259E0
3.063755995E0,-3.455235958E0,-8.767302513E0,3.134597540E-1,9.428812539E0
3.066160943E0,-3.515056372E0,-8.774480820E0,3.182454109E-1,9.457717224E0
3.068565891E0,-3.565305710E0,-8.774480820E0,3.158525825E-1,9.476427666E0
3.070970787E0,-3.627519131E0,-8.760123253E0,3.134597540E-1,9.486670199E0
3.073375735E0,-3.661018610E0,-8.755337715E0,2.775674164E-1,9.494000181E0
3.075780683E0,-3.692125320E0,-8.772088051E0,2.512463629E-1,9.520737518E0
3.078185631E0,-3.739981890E0,-8.781659126E0,2.249253243E-1,9.547543818E0
3.080590526E0,-3.754338741E0,-8.798408508E0,2.057827413E-1,9.568144972E0
3.082995474E0,-3.775874138E0,-8.810373306E0,1.674975902E-1,9.586863864E0
3.085400422E0,-3.809373617E0,-8.807980537E0,1.220339537E-1,9.597225682E0
3.087805318E0,-3.814159393E0,-8.812766075E0,8.374879509E-2,9.603107395E0
3.090210266E0,-3.814159393E0,-8.843872070E0,3.349951655E-2,9.631355423E0
3.092615214E0,-3.816552162E0,-8.848658562E0,-3.349951655E-2,9.636698136E0
3.095020162E0,-3.821337700E0,-8.851051331E0,-7.657032460E-2,9.641037003E0
3.097425058E0,-3.830909014E0,-8.851051331E0,-1.411765367E-1,9.645563972E0
3.099830006E0,-3.804588079E0,-8.877371788E0,-2.177468538E-1,9.660747073E0
3.102234953E0,-3.783052683E0,-8.898907661E0,-2.703889608E-1,9.673425213E0
3.104639849E0,-3.768695593E0,-8.896514893E0,-3.134597540E-1,9.666917850E0
3.107044797E0,-3.756731510E0,-8.898907661E0,-3.708875179E-1,9.666496095E0
3.109449745E0,-3.739981890E0,-8.896514893E0,-4.211367965E-1,9.659854966E0
3.111854693E0,-3.706482172E0,-8.886942863E0,-4.570291340E-1,9.639742693E0
3.114259589E0,-3.704089403E0,-8.882157326E0,-4.785645306E-1,9.635456454E0
3.116664537E0,-3.689732552E0,-8.874979019E0,-5.000999570E-1,9.624420962E0
3.119069485E0,-3.665804386E0,-8.870193481E0,-5.264210105E-1,9.612261611E0
3.121474381E0,-3.632304668E0,-8.872586250E0,-5.383850932E-1,9.602410243E0
3.123879328E0,-3.613162279E0,-8.877371788E0,-5.359922647E-1,9.599477029E0
3.126284276E0,-3.589233875E0,-8.867800713E0,-5.431707501E-1,9.582041732E0
3.128689172E0,-3.586841106E0,-8.841479301E0,-5.647061467E-1,9.558037371E0
3.131094120E0,-3.570091486E0,-8.810373306E0,-5.742774606E-1,9.523551103E0
3.133499068E0,-3.567698479E0,-8.779266357E0,-5.575276613E-1,9.492882982E0
3.135904016E0,-3.543770313E0,-8.769695282E0,-5.359922647E-1,9.473813967E0
3.138308912E0,-3.560520172E0,-8.750552177E0,-5.144568682E-1,9.461190896E0
3.140713860E0,-3.567698479E0,-8.736195564E0,-4.953143001E-1,9.449599019E0
3.143118808E0,-3.591626883E0,-8.724231720E0,-4.666004181E-1,9.446148354E0
3.145523756E0,-3.646661758E0,-8.733802795E0,-4.283152521E-1,9.474223304E0
3.147928651E0,-3.684946775E0,-8.724231720E0,-3.948157430E-1,9.478762119E0
3.150333599E0,-3.728017569E0,-8.731410027E0,-3.541377485E-1,9.500581539E0
3.152738547E0,-3.780659676E0,-8.743373871E0,-3.134597540E-1,9.530909256E0
3.155143443E0,-3.816552162E0,-8.755337715E0,-2.823530734E-1,9.555193989E0
3.157548391E0,-3.866801500E0,-8.769695282E0,-2.679961324E-1,9.588093195E0
3.159953339E0,-3.897907972E0,-8.781659126E0,-2.273181528E-1,9.610561748E0
3.162358287E0,-3.926621914E0,-8.793622971E0,-1.938186288E-1,9.632431171E0
3.164763183E0,-3.955335855E0,-8.796015739E0,-1.842473447E-1,9.646166166E0
3.167168131E0,-3.993621111E0,-8.805587769E0,-1.651047617E-1,9.670297054E0
3.169573078E0,-4.024727821E0,-8.831908226E0,-1.722832322E-1,9.707250819E0
3.171977974E0,-4.022335052E0,-8.843872070E0,-1.818545163E-1,9.717320800E0
3.174382922E0,-4.029513359E0,-8.834300995E0,-1.794617027E-1,9.711542539E0
3.176787870E0,-4.063013077E0,-8.855836868E0,-2.081755698E-1,9.745627685E0
3.179192766E0,-4.096512318E0,-8.874979019E0,-2.201396823E-1,9.777276064E0
3.181597714E0,-4.101297855E0,-8.860622406E0,-2.416750938E-1,9.766764069E0
3.184002662E0,-4.122833252E0,-8.860622406E0,-2.679961324E-1,9.776512945E0
3.186407610E0,-4.127619267E0,-8.879764557E0,-2.991028428E-1,9.796781201E0
3.188812506E0,-4.118047714E0,-8.882157326E0,-3.302095234E-1,9.795921297E0
3.191217453E0,-4.103690624E0,-8.863015175E0,-3.732803464E-1,9.774080670E0
3.193622401E0,-4.086941242E0,-8.863015175E0,-3.972085714E-1,9.768003960E0
3.196027297E0,-4.089334011E0,-8.853444099E0,-4.187439680E-1,9.761222853E0
3.198432245E0,-4.074976921E0,-8.839086533E0,-4.402793646E-1,9.743137768E0
3.200837193E0,-4.058227062E0,-8.851051331E0,-4.522434771E-1,9.747555627E0
3.203242141E0,-4.048655987E0,-8.841479301E0,-4.809573591E-1,9.736256545E0
3.205647037E0,-4.029513359E0,-8.839086533E0,-4.929214716E-1,9.726736360E0
3.208051985E0,-4.027120590E0,-8.841479301E0,-5.216353536E-1,9.729417245E0
3.210456933E0,-4.015156269E0,-8.851051331E0,-5.455635786E-1,9.734486588E0
3.212861881E0,-4.031906128E0,-8.836693764E0,-5.790630579E-1,9.730299981E0
3.215266776E0,-4.003192425E0,-8.839086533E0,-5.958128572E-1,9.721625033E0
3.217671724E0,-3.996013880E0,-8.846264839E0,-6.077769399E-1,9.725940640E0
3.220076672E0,-4.000799656E0,-8.843872070E0,-6.436693072E-1,9.728040977E0
3.222481568E0,-4.012763500E0,-8.867800713E0,-6.460621357E-1,9.754873483E0
3.224886516E0,-4.027120590E0,-8.891729355E0,-6.628118753E-1,9.783653242E0
3.227291464E0,-4.010370731E0,-8.903693199E0,-6.843472719E-1,9.789134649E0
3.229696360E0,-3.972085476E0,-8.930013657E0,-6.867401004E-1,9.797663951E0
3.232101308E0,-3.979264021E0,-8.958727837E0,-7.154539824E-1,9.828795501E0
3.234506256E0,-3.969692707E0,-8.975478172E0,-7.058826685E-1,9.839509081E0
3.236911203E0,-3.967299938E0,-8.997013092E0,-7.058826685E-1,9.858193735E0
3.239316099E0,-3.967299938E0,-9.016156197E0,-7.082754970E-1,9.875838979E0
3.241721047E0,-3.948157310E0,-9.032905579E0,-6.867401004E-1,9.881950278E0
3.244125995E0,-3.929014683E0,-9.071190834E0,-6.891329288E-1,9.909518844E0
3.246530943E0,-3.933800459E0,-9.071190834E0,-6.723831892E-1,9.910266815E0
3.248935839E0,-3.926621914E0,-9.075976372E0,-6.436693072E-1,9.909894900E0
3.251340787E0,-3.902693748E0,-9.111868858E0,-6.293123364E-1,9.932432059E0
3.253745735E0,-3.897907972E0,-9.119047165E0,-6.221339107E-1,9.936687494E0
3.256150631E0,-3.881158352E0,-9.138189316E0,-6.053841114E-1,9.946677035E0
3.258555578E0,-3.850051641E0,-9.145368576E0,-5.886343718E-1,9.940178794E0
3.260960526E0,-3.828516245E0,-9.147761345E0,-5.527420044E-1,9.931998690E0
3.263365474E0,-3.802195072E0,-9.166903496E0,-5.407779217E-1,9.938875582E0
3.265770370E0,-3.761517286E0,-9.181260109E0,-5.096712112E-1,9.935004491E0
3.268175318E0,-3.739981890E0,-9.212367058E0,-4.857429862E-1,9.954452149E0
3.270580266E0,-3.708875179E0,-9.205188751E0,-4.618147612E-1,9.935015245E0
3.272985162E0,-3.701696634E0,-9.207581520E0,-4.450650215E-1,9.933790731E0
3.275390110E0,-3.665804386E0,-9.209974289E0,-4.283152521E-1,9.921955561E0
3.277795058E0,-3.649054527E0,-9.202795982E0,-4.019941986E-1,9.908009496E0
3.280199953E0,-3.637090445E0,-9.186046600E0,-3.924229145E-1,9.887662757E0
3.282604901E0,-3.622733593E0,-9.195617676E0,-3.756731451E-1,9.890637666E0
3.285009849E0,-3.625126362E0,-9.186046600E0,-3.661018610E-1,9.882258034E0
3.287414797E0,-3.625126362E0,-9.198010445E0,-3.397808075E-1,9.892440967E0
3.289819693E0,-3.634697676E0,-9.198010445E0,-3.110669553E-1,9.895008135E0
3.292224641E0,-3.639483213E0,-9.221938133E0,-2.991028428E-1,9.918641213E0
3.294629589E0,-3.637090445E0,-9.260223389E0,-2.943171859E-1,9.953229964E0
3.297034537E0,-3.632304668E0,-9.267401695E0,-2.656033039E-1,9.957354895E0
3.299439433E0,-3.615555048E0,-9.267401695E0,-2.488535494E-1,9.950824115E0
3.301844381E0,-3.615555048E0,-9.274580956E0,-2.368894368E-1,9.957218829E0
3.304249328E0,-3.603590965E0,-9.279366493E0,-2.225325108E-1,9.957009143E0
3.306654224E0,-3.601198196E0,-9.269794464E0,-2.153540403E-1,9.947064653E0
3.309059172E0,-3.589233875E0,-9.253045082E0,-2.153540403E-1,9.927125489E0
3.311464120E0,-3.584448338E0,-9.233902931E0,-2.201396823E-1,9.907658387E0
3.313869016E0,-3.567698479E0,-9.205188751E0,-2.177468538E-1,9.874785368E0
3.316273964E0,-3.582055569E0,-9.190832138E0,-2.057827413E-1,9.866350086E0
3.318678912E0,-3.613162279E0,-9.193224907E0,-2.033899277E-1,9.879863021E0
3.321083860E0,-3.637090445E0,-9.190832138E0,-2.225325108E-1,9.886826741E0
3.323488756E0,-3.656233072E0,-9.190832138E0,-2.368894368E-1,9.894218123E0
3.325893703E0,-3.677768469E0,-9.217152596E0,-2.416750938E-1,9.926746180E0
3.328298651E0,-3.723232031E0,-9.260223389E0,-2.464607358E-1,9.983733613E0
3.330703599E0,-3.737588882E0,-9.291330338E0,-2.464607358E-1,1.001794056E1
3.333108495E0,-3.761517286E0,-9.339186668E0,-2.608176768E-1,1.007161585E1
3.335513443E0,-3.780659676E0,-9.355937004E0,-2.799602449E-1,1.009481662E1
3.337918391E0,-3.809373617E0,-9.355937004E0,-3.134597540E-1,1.010658902E1
3.340323287E0,-3.804588079E0,-9.367900848E0,-3.326023519E-1,1.011647572E1
3.342728235E0,-3.811766386E0,-9.384650230E0,-3.469592929E-1,1.013516668E1
3.345133183E0,-3.835694790E0,-9.372686386E0,-3.732803464E-1,1.013405856E1
3.347538078E0,-3.826123476E0,-9.396614075E0,-3.828516304E-1,1.015293811E1
3.349943026E0,-3.830909014E0,-9.394221306E0,-3.756731451E-1,1.015226025E1
3.352347974E0,-3.830909014E0,-9.410971642E0,-3.876372576E-1,1.016821094E1
3.354752870E0,-3.833301783E0,-9.418149948E0,-4.019941986E-1,1.017631320E1
3.357157818E0,-3.847658873E0,-9.413364410E0,-4.115654826E-1,1.017768611E1
3.359562766E0,-3.835694790E0,-9.394221306E0,-3.996013701E-1,1.015498054E1
3.361967714E0,-3.814159393E0,-9.358329773E0,-4.019941986E-1,1.011374052E1
3.364372610E0,-3.816552162E0,-9.324830055E0,-3.900300860E-1,1.008318647E1
3.366777558E0,-3.804588079E0,-9.265008926E0,-3.804588020E-1,1.002297510E1
3.369182506E0,-3.780659676E0,-9.209974289E0,-3.541377485E-1,9.962049364E0
3.371587453E0,-3.773481369E0,-9.169296265E0,-3.469592929E-1,9.921468459E0
3.373992349E0,-3.771088600E0,-9.121439934E0,-3.254238665E-1,9.875610178E0
3.376397297E0,-3.780659676E0,-9.061619759E0,-2.967100143E-1,9.823155148E0
3.378802245E0,-3.795016766E0,-9.023334503E0,-2.727817893E-1,9.792707885E0
3.381207141E0,-3.826123476E0,-8.985049248E0,-2.368894368E-1,9.768646142E0
3.383612089E0,-3.871587038E0,-8.937192917E0,-2.273181528E-1,9.742395854E0
3.386017037E0,-3.909872293E0,-8.889336586E0,-2.033899277E-1,9.713329694E0
3.388421985E0,-3.988835335E0,-8.863015175E0,-1.962114573E-1,9.721231622E0
3.390826881E0,-4.072584152E0,-8.884550095E0,-2.081755698E-1,9.775710160E0
3.393231828E0,-4.192225456E0,-8.918049812E0,-2.297109663E-1,9.856933289E0
3.395636776E0,-4.331008911E0,-9.016156197E0,-2.679961324E-1,1.000602482E1
3.398041672E0,-4.488935471E0,-9.116654396E0,-3.038884699E-1,1.016642893E1
3.400446620E0,-4.670789719E0,-9.255437851E0,-3.708875179E-1,1.037385965E1
3.402851568E0,-4.823930264E0,-9.403793335E0,-4.570291340E-1,1.057877630E1
3.405256516E0,-4.945964336E0,-9.568898201E0,-5.647061467E-1,1.078634642E1
3.407661412E0,-5.034498692E0,-9.705288887E0,-6.963114142E-1,1.095553098E1
3.410066360E0,-5.106283665E0,-9.786644936E0,-8.063812256E-1,1.106809842E1
3.412471308E0,-5.132604599E0,-9.882357597E0,-9.236295223E-1,1.117397481E1
3.414876203E0,-5.130211830E0,-9.954142570E0,-1.033699393E0,1.124600205E1
3.417281151E0,-5.106283665E0,-9.994820595E0,-1.143769264E0,1.128178974E1
3.419686099E0,-5.072783947E0,-1.003310490E1,-1.225125194E0,1.130916719E1
3.422090995E0,-5.003392220E0,-1.009771156E1,-1.258624673E0,1.133939366E1
3.424495943E0,-4.936393261E0,-1.013121128E1,-1.299302697E0,1.134449681E1
3.426900891E0,-4.893322468E0,-1.018385315E1,-1.328016520E0,1.137625147E1
3.429305839E0,-4.828716278E0,-1.023888779E1,-1.356730461E0,1.140140524E1
3.431710735E0,-4.754538536E0,-1.028435135E1,-1.390229940E0,1.141517668E1
3.434115683E0,-4.709074974E0,-1.033460140E1,-1.416550994E0,1.144491110E1
3.436520631E0,-4.666004181E0,-1.037527943E1,-1.447657704E0,1.146794363E1
3.438925578E0,-4.625326157E0,-1.044227791E1,-1.464407444E0,1.151430845E1
3.441330474E0,-4.589433670E0,-1.049252701E1,-1.500299811E0,1.155019151E1
3.443735422E0,-4.582255363E0,-1.052841949E1,-1.538584948E0,1.158498705E1
3.446140370E0,-4.577469826E0,-1.056909752E1,-1.591227055E0,1.162716887E1
3.448545266E0,-4.551148891E0,-1.060738277E1,-1.624726534E0,1.165629709E1
3.450950214E0,-4.548755646E0,-1.065523911E1,-1.643869162E0,1.170160690E1
3.453355162E0,-4.508078098E0,-1.066959572E1,-1.670190215E0,1.170267389E1
3.455760058E0,-4.465006828E0,-1.068156052E1,-1.682154298E0,1.169878900E1
3.458165006E0,-4.412364960E0,-1.065284634E1,-1.696511269E0,1.165462355E1
3.460569953E0,-4.347758770E0,-1.060020447E1,-1.689332843E0,1.158107018E1
3.462974901E0,-4.290330887E0,-1.053320503E1,-1.655833244E0,1.149335160E1
3.465379797E0,-4.235296249E0,-1.047817039E1,-1.627119422E0,1.141828826E1
3.467784745E0,-4.158725739E0,-1.039442158E1,-1.579262972E0,1.130632881E1
3.470189693E0,-4.098905087E0,-1.031545830E1,-1.507478237E0,1.120188348E1
3.472594589E0,-4.022335052E0,-1.022213840E1,-1.438086390E0,1.107878086E1
3.474999537E0,-3.957728624E0,-1.013838959E1,-1.363908887E0,1.096862830E1
3.477404485E0,-3.917050600E0,-1.003071213E1,-1.265803218E0,1.084254255E1
3.479809433E0,-3.885943890E0,-9.949356079E0,-1.165304661E0,1.074468153E1
3.482214328E0,-3.871587038E0,-9.870393753E0,-1.071984529E0,1.065659467E1
3.484619276E0,-3.850051641E0,-9.789037704E0,-9.619147182E-1,1.056283280E1
3.487024224E0,-3.828516245E0,-9.693324089E0,-8.638089895E-1,1.045773563E1
3.489429120E0,-3.818944931E0,-9.583254814E0,-7.417750359E-1,1.034279186E1
3.491834068E0,-3.809373617E0,-9.468399048E0,-6.269195080E-1,1.022521080E1
3.494239016E0,-3.792623997E0,-9.329615593E0,-5.335994363E-1,1.008516000E1
3.496643964E0,-3.773481369E0,-9.169296265E0,-4.331009090E-1,9.924854257E0
3.499048860E0,-3.768695593E0,-9.004191399E0,-3.349951804E-1,9.766818877E0
3.501453808E0,-3.742374659E0,-8.865407944E0,-2.632105052E-1,9.626531352E0
3.503858756E0,-3.689732552E0,-8.717052460E0,-1.603191197E-1,9.467144876E0
3.506263651E0,-3.668197155E0,-8.580661774E0,-1.052841991E-1,9.332444032E0
3.508668599E0,-3.646661758E0,-8.461020470E0,-5.024927482E-2,9.213551669E0
3.511073547E0,-3.653840065E0,-8.348558426E0,1.435693540E-2,9.113132345E0
3.513478495E0,-3.646661758E0,-8.233702660E0,8.135596663E-2,9.005477237E0
3.515883391E0,-3.646661758E0,-8.137989998E0,1.268195957E-1,8.918582084E0
3.518288339E0,-3.641875982E0,-8.047062874E0,1.698904037E-1,8.834440804E0
3.520693287E0,-3.641875982E0,-7.982456207E0,2.033899277E-1,8.776345209E0
3.523098183E0,-3.615555048E0,-7.936992645E0,2.344966233E-1,8.724854109E0
3.525503131E0,-3.601198196E0,-7.886743546E0,2.608176768E-1,8.673948240E0
3.527908078E0,-3.594019651E0,-7.860422611E0,2.823530734E-1,8.647713232E0
3.530313026E0,-3.574877024E0,-7.841279984E0,2.943171859E-1,8.622762905E0
3.532717922E0,-3.562912941E0,-7.867600918E0,2.991028428E-1,8.641930070E0
3.535122870E0,-3.562912941E0,-7.867600918E0,2.943171859E-1,8.641765759E0
3.537527818E0,-3.560520172E0,-7.896314621E0,2.775674164E-1,8.666379415E0
3.539932714E0,-3.560520172E0,-7.929814339E0,2.632105052E-1,8.696467048E0
3.542337662E0,-3.550948858E0,-7.968099594E0,2.225325108E-1,8.726360619E0
3.544742610E0,-3.548556089E0,-8.023134232E0,1.914258152E-1,8.774940288E0
3.547147558E0,-3.531806231E0,-8.078168869E0,1.411765367E-1,8.817618632E0
3.549552453E0,-3.522234917E0,-8.154739380E0,8.374879509E-2,8.883294829E0
3.551957401E0,-3.510270834E0,-8.231309891E0,7.178467698E-3,8.948548227E0
3.554362349E0,-3.476771355E0,-8.305487633E0,-6.221338734E-2,9.004050998E0
3.556767245E0,-3.460021496E0,-8.377271652E0,-1.579262912E-1,9.065063144E0
3.559172193E0,-3.455235958E0,-8.439485550E0,-2.464607358E-1,9.122736145E0
3.561577141E0,-3.440878868E0,-8.506484032E0,-3.230310678E-1,9.181735513E0
3.563982037E0,-3.414557934E0,-8.544769287E0,-4.307080805E-1,9.211829216E0
3.566386985E0,-3.400201082E0,-8.618947029E0,-5.216353536E-1,9.280071052E0
3.568791933E0,-3.397808075E0,-8.697910309E0,-6.053841114E-1,9.357629688E0
3.571196881E0,-3.421736479E0,-8.800801277E0,-6.747759581E-1,9.466662888E0
3.573601776E0,-3.428914785E0,-8.915657043E0,-7.393822074E-1,9.580870690E0
3.576006724E0,-3.448057413E0,-9.037691116E0,-8.255237937E-1,9.708267104E0
3.578411672E0,-3.469592810E0,-9.147761345E0,-8.901300430E-1,9.824049236E0
3.580816568E0,-3.495913982E0,-9.257830620E0,-9.547362328E-1,9.941849105E0
3.583221516E0,-3.488735437E0,-9.377471924E0,-1.019342422E0,1.005720208E1
3.585626464E0,-3.503092289E0,-9.494720459E0,-1.083948612E0,1.017822759E1
3.588031412E0,-3.491128206E0,-9.590433121E0,-1.131805062E0,1.026865942E1
3.590436308E0,-3.479164124E0,-9.683753014E0,-1.172483087E0,1.035636867E1
3.592841256E0,-3.471985579E0,-9.779465675E0,-1.232303619E0,1.045041650E1
3.595246203E0,-3.483949661E0,-9.870393753E0,-1.280160069E0,1.054520687E1
3.597651099E0,-3.495913982E0,-9.915857315E0,-1.323230863E0,1.059700811E1
3.600056047E0,-3.531806231E0,-9.975677490E0,-1.366301775E0,1.067026603E1
3.602460995E0,-3.541377544E0,-1.003310490E1,-1.385444283E0,1.072958548E1
3.604865943E0,-3.567698479E0,-1.008814049E1,-1.430907965E0,1.079567268E1
3.607270839E0,-3.596412420E0,-1.012642574E1,-1.457229018E0,1.084445467E1
3.609675787E0,-3.646661758E0,-1.018146038E1,-1.483550072E0,1.091609813E1
3.612080735E0,-3.680161238E0,-1.021496010E1,-1.526620865E0,1.096446842E1
3.614485631E0,-3.713660717E0,-1.023170948E1,-1.557727575E0,1.099571144E1
3.616890578E0,-3.744767427E0,-1.024606609E1,-1.569691658E0,1.102130144E1
3.619295526E0,-3.790230989E0,-1.024845982E1,-1.593619823E0,1.104248177E1
3.621700474E0,-3.826123476E0,-1.026520920E1,-1.588834286E0,1.106969445E1
3.624105370E0,-3.871587038E0,-1.026281643E1,-1.552941918E0,1.107818649E1
3.626510318E0,-3.888336897E0,-1.026520920E1,-1.519442320E0,1.108162392E1
3.628915266E0,-3.907479286E0,-1.023410225E1,-1.517049551E0,1.105923517E1
3.631320162E0,-3.917050600E0,-1.021256733E1,-1.464407444E0,1.103559269E1
3.633725110E0,-3.929014683E0,-1.018385315E1,-1.414158225E0,1.100671908E1
3.636130058E0,-3.938585997E0,-1.013360405E1,-1.373480201E0,1.095850531E1
3.638535006E0,-3.952943087E0,-1.008096218E1,-1.318445325E0,1.090824714E1
3.640939901E0,-3.936193228E0,-9.997213364E0,-1.241874933E0,1.081573601E1
3.643344849E0,-3.926621914E0,-9.930213928E0,-1.165304661E0,1.074176165E1
3.645749797E0,-3.881158352E0,-9.868000984E0,-1.100698471E0,1.066078659E1
3.648154693E0,-3.854837179E0,-9.791430473E0,-1.019342422E0,1.057217761E1
3.650559641E0,-3.826123476E0,-9.722038269E0,-9.355936646E-1,1.048964177E1
3.652964589E0,-3.809373617E0,-9.657432556E0,-8.685946465E-1,1.041785907E1
3.655369485E0,-3.806980848E0,-9.597611427E0,-7.704889178E-1,1.035378682E1
3.657774433E0,-3.780659676E0,-9.564111710E0,-6.915257573E-1,1.030746469E1
3.660179381E0,-3.754338741E0,-9.525827408E0,-6.101697683E-1,1.025713188E1
3.662584328E0,-3.718446493E0,-9.480362892E0,-5.359922647E-1,1.019761799E1
3.664989224E0,-3.699303865E0,-9.427721024E0,-4.737788737E-1,1.013860144E1
3.667394172E0,-3.665804386E0,-9.360722542E0,-4.067798555E-1,1.006114895E1
3.669799120E0,-3.634697676E0,-9.296115875E0,-3.302095234E-1,9.986883192E0
3.672204068E0,-3.610769272E0,-9.207581520E0,-2.727817893E-1,9.894019511E0
3.674608964E0,-3.598805189E0,-9.145368576E0,-2.177468538E-1,9.830390576E0
3.677013912E0,-3.570091486E0,-9.083154678E0,-1.579262912E-1,9.760850006E0
3.679418860E0,-3.531806231E0,-9.006584167E0,-1.100698411E-1,9.674933022E0
3.681823756E0,-3.522234917E0,-8.925228119E0,-7.657032460E-2,9.595399877E0
3.684228703E0,-3.507878065E0,-8.846264839E0,-3.828516230E-2,9.516463412E0
3.686633651E0,-3.464807272E0,-8.774480820E0,-1.674975827E-2,9.433805364E0
3.689038547E0,-3.436093330E0,-8.729017258E0,1.196411345E-2,9.380971314E0
3.691443495E0,-3.414557934E0,-8.676374435E0,1.914258115E-2,9.324110985E0
3.693848443E0,-3.354737282E0,-8.635697365E0,2.632104978E-2,9.264460265E0
3.696253391E0,-3.304488182E0,-8.609375954E0,9.571290575E-3,9.221772501E0
3.698658287E0,-3.223132133E0,-8.568697929E0,7.178467698E-3,9.154846612E0
3.701063235E0,-3.132204771E0,-8.559126854E0,0.000000000E0,9.114239366E0
3.703468183E0,-3.062813044E0,-8.547162056E0,-1.674975827E-2,9.079376824E0
3.705873078E0,-2.979064226E0,-8.559126854E0,-3.828516230E-2,9.062832996E0
3.708278026E0,-2.902493954E0,-8.556734085E0,-7.417750359E-2,9.035910118E0
3.710682974E0,-2.816352367E0,-8.561519623E0,-1.292124242E-1,9.013775833E0
3.713087870E0,-2.732603550E0,-8.587840080E0,-1.914258152E-1,9.014142402E0
3.715492818E0,-2.639283419E0,-8.599804878E0,-2.440679073E-1,8.999001614E0
3.717897766E0,-2.567498684E0,-8.597412109E0,-2.799602449E-1,8.976966203E0
3.720302714E0,-2.486142635E0,-8.604590416E0,-3.349951804E-1,8.962817816E0
3.722707610E0,-2.414358139E0,-8.614161491E0,-3.948157430E-1,8.954818976E0
3.725112558E0,-2.359323025E0,-8.626125336E0,-4.594219327E-1,8.954748012E0
3.727517506E0,-2.280359983E0,-8.623732567E0,-5.312066078E-1,8.935937863E0
3.729922401E0,-2.230110645E0,-8.614161491E0,-6.029912829E-1,8.918563235E0
3.732327349E0,-2.199003935E0,-8.590232849E0,-6.628118753E-1,8.891964816E0
3.734732297E0,-2.155933142E0,-8.563912392E0,-7.298108935E-1,8.861222664E0
3.737137245E0,-2.112862349E0,-8.525627136E0,-7.968099117E-1,8.819603812E0
3.739542141E0,-2.084148407E0,-8.506484032E0,-8.733802438E-1,8.801519086E0
3.741947089E0,-2.067398787E0,-8.501698494E0,-9.236295223E-1,8.798074023E0
3.744352037E0,-2.069791555E0,-8.451449394E0,-9.954141974E-1,8.757961142E0
3.746756933E0,-2.091326952E0,-8.439485550E0,-1.062413216E0,8.759411316E0
3.749161881E0,-2.115255117E0,-8.422736168E0,-1.127019525E0,8.757109213E0
3.751566828E0,-2.165504456E0,-8.394021988E0,-1.191625714E0,8.750370651E0
3.753971724E0,-2.208575249E0,-8.374878883E0,-1.234696507E0,8.748764279E0
3.756376672E0,-2.246860504E0,-8.334200859E0,-1.287338614E0,8.727229044E0
3.758781620E0,-2.268395901E0,-8.300702095E0,-1.323230863E0,8.706217040E0
3.761186568E0,-2.299502611E0,-8.286344528E0,-1.363908887E0,8.706977969E0
3.763591464E0,-2.335394859E0,-8.262416840E0,-1.402194023E0,8.699870646E0
3.765996412E0,-2.371287346E0,-8.240880966E0,-1.438086390E0,8.695010940E0
3.768401360E0,-2.385644197E0,-8.209774017E0,-1.438086390E0,8.669474039E0
3.770806256E0,-2.423929453E0,-8.224131584E0,-1.459621787E0,8.697256468E0
3.773211203E0,-2.450250387E0,-8.240880966E0,-1.478764415E0,8.723679857E0
3.775616151E0,-2.471785784E0,-8.231309891E0,-1.457229018E0,8.717092628E0
3.778021099E0,-2.490928411E0,-8.255238533E0,-1.459621787E0,8.745523618E0
3.780425995E0,-2.538784742E0,-8.293522835E0,-1.469193101E0,8.796958415E0
3.782830943E0,-2.565105915E0,-8.310273170E0,-1.476371527E0,8.821569101E0
3.785235891E0,-2.603390932E0,-8.338987350E0,-1.476371527E0,8.859798376E0
3.787640787E0,-2.629712105E0,-8.384450912E0,-1.478764415E0,8.910732128E0
3.790045735E0,-2.627319336E0,-8.415556908E0,-1.485942841E0,8.940493895E0
3.792450683E0,-2.610569477E0,-8.449056625E0,-1.497906923E0,8.969133515E0
3.794855631E0,-2.608176708E0,-8.484949112E0,-1.519442320E0,9.005867650E0
3.797260526E0,-2.603390932E0,-8.516056061E0,-1.521835208E0,9.034203760E0
3.799665474E0,-2.610569477E0,-8.520841599E0,-1.524227977E0,9.041188277E0
3.802070422E0,-2.600998163E0,-8.539983749E0,-1.519442320E0,9.055673296E0
3.804475318E0,-2.600998163E0,-8.561519623E0,-1.521835208E0,9.076386511E0
3.806880266E0,-2.591426849E0,-8.590232849E0,-1.524227977E0,9.101146326E0
3.809285214E0,-2.610569477E0,-8.611768723E0,-1.533799291E0,9.128536235E0
3.811690110E0,-2.620140791E0,-8.635697365E0,-1.531406522E0,9.153448130E0
3.814095058E0,-2.605783939E0,-8.662017822E0,-1.529013634E0,9.173796672E0
3.816500006E0,-2.605783939E0,-8.673981667E0,-1.540977836E0,9.187093152E0
3.818904901E0,-2.610569477E0,-8.676374435E0,-1.540977836E0,9.190710475E0
3.821309849E0,-2.632104874E0,-8.690732002E0,-1.538584948E0,9.209996875E0
3.823714797E0,-2.646461725E0,-8.714659691E0,-1.548156261E0,9.238281280E0
3.826119745E0,-2.653640270E0,-8.743373871E0,-1.543370605E0,9.266627550E0
3.828524641E0,-2.663211584E0,-8.774480820E0,-1.552941918E0,9.300313876E0
3.830929589E0,-2.670390129E0,-8.796015739E0,-1.540977836E0,9.320702174E0
3.833334537E0,-2.684746981E0,-8.805587769E0,-1.540977836E0,9.333855312E0
3.835739485E0,-2.713460922E0,-8.843872070E0,-1.524227977E0,9.375511415E0
3.838144381E0,-2.749353170E0,-8.851051331E0,-1.509871125E0,9.390408049E0
3.840549328E0,-2.778067112E0,-8.860622406E0,-1.493121386E0,9.405195254E0
3.842954276E0,-2.804388046E0,-8.874979019E0,-1.485942841E0,9.425384397E0
3.845359172E0,-2.825923443E0,-8.903693199E0,-1.457229018E0,9.454370011E0
3.847764120E0,-2.833101988E0,-8.918049812E0,-1.430907965E0,9.466022234E0
3.850169068E0,-2.852244616E0,-8.925228119E0,-1.390229940E0,9.472472518E0
3.852573964E0,-2.859423161E0,-8.922835350E0,-1.356730461E0,9.467523913E0
3.854978912E0,-2.895315409E0,-8.906085968E0,-1.339980721E0,9.460273089E0
3.857383860E0,-2.921636343E0,-8.891729355E0,-1.299302697E0,9.449179718E0
3.859788808E0,-2.952743053E0,-8.863015175E0,-1.249053478E0,9.425065736E0
3.862193703E0,-2.995813847E0,-8.834300995E0,-1.205982566E0,9.406070839E0
3.864598651E0,-3.038884640E0,-8.803194046E0,-1.162911773E0,9.385276184E0
3.867003599E0,-3.060420275E0,-8.779266357E0,-1.117448211E0,9.364314205E0
3.869408495E0,-3.103491068E0,-8.781659126E0,-1.062413216E0,9.374322144E0
3.871813443E0,-3.117847919E0,-8.757730484E0,-1.009771109E0,9.350853254E0
3.874218391E0,-3.144168854E0,-8.743373871E0,-9.954141974E-1,9.344690142E0
3.876623287E0,-3.172882795E0,-8.733802795E0,-9.571290612E-1,9.341444885E0
3.879028235E0,-3.199203968E0,-8.724231720E0,-9.212366939E-1,9.337869253E0
3.881433183E0,-3.215953588E0,-8.702695847E0,-8.925228715E-1,9.320722588E0
3.883838131E0,-3.213560820E0,-8.695517540E0,-8.733802438E-1,9.311379676E0
3.886243026E0,-3.218346357E0,-8.664410591E0,-8.470591903E-1,9.281555551E0
3.888647974E0,-3.215953588E0,-8.647661209E0,-8.135597110E-1,9.262088386E0
3.891052922E0,-3.220739365E0,-8.645268440E0,-7.848458290E-1,9.259039444E0
3.893457818E0,-3.232703447E0,-8.626125336E0,-7.513462901E-1,9.242560854E0
3.895862766E0,-3.232703447E0,-8.630910873E0,-7.417750359E-1,9.246254609E0
3.898267714E0,-3.218346357E0,-8.606983185E0,-7.250252366E-1,9.217568791E0
3.900672662E0,-3.218346357E0,-8.590232849E0,-6.963114142E-1,9.199712129E0
3.903077558E0,-3.218346357E0,-8.618947029E0,-6.819544435E-1,9.225457334E0
3.905482506E0,-3.201596737E0,-8.602197647E0,-6.604190469E-1,9.202400738E0
3.907887453E0,-3.199203968E0,-8.583054543E0,-6.197410822E-1,9.180839304E0
3.910292349E0,-3.163311481E0,-8.575876236E0,-6.029912829E-1,9.160556273E0
3.912697297E0,-3.172882795E0,-8.556734085E0,-5.862415433E-1,9.144865367E0
3.915102245E0,-3.148954630E0,-8.547162056E0,-5.742774606E-1,9.126866334E0
3.917507141E0,-3.125026464E0,-8.530412674E0,-5.647061467E-1,9.102341667E0
3.919912089E0,-3.127419233E0,-8.513663292E0,-5.670989752E-1,9.087618773E0
3.922317037E0,-3.105883837E0,-8.516056061E0,-5.814558864E-1,9.083381319E0
3.924721985E0,-3.098705292E0,-8.518448830E0,-5.838487148E-1,9.083326718E0
3.927126881E0,-3.079562664E0,-8.520841599E0,-6.029912829E-1,9.080310911E0
3.929531828E0,-3.067598581E0,-8.537590981E0,-6.101697683E-1,9.092465450E0
3.931936776E0,-3.062813044E0,-8.539983749E0,-6.340979934E-1,9.094736194E0
3.934341672E0,-3.055634499E0,-8.566305161E0,-6.460621357E-1,9.117888055E0
3.936746620E0,-3.029313564E0,-8.580661774E0,-6.580262184E-1,9.123458536E0
3.939151568E0,-3.005385160E0,-8.592626572E0,-6.819544435E-1,9.128561400E0
