"Time (s)","Acceleration x (m/s^2)","Acceleration y (m/s^2)","Acceleration z (m/s^2)"
9.930787000E-3,-2.890529871E0,6.619743824E0,5.937191010E0
2.917089100E-2,-3.367897987E0,6.415157318E0,5.344967365E0
4.841099500E-2,-3.539582968E0,6.616752625E0,5.469394207E0
6.765110000E-2,-4.188635826E0,6.644868374E0,6.828517437E0
8.689120400E-2,-3.864408493E0,5.966503143E0,8.367700577E0
1.061313080E-1,-3.192025423E0,5.404190063E0,9.206384659E0
1.253714120E-1,-2.281556368E0,5.164907455E0,9.160323143E0
1.446115160E-1,-1.898704767E0,5.014758110E0,8.636295319E0
1.638516200E-1,-2.123630047E0,4.867001057E0,8.692526817E0
1.830917250E-1,-1.054038405E0,4.643272400E0,9.160921097E0
2.023318290E-1,2.991028363E-3,4.321437836E0,9.870393753E0
2.215719330E-1,4.803591371E-1,4.247858524E0,9.979865074E0
2.408120370E-1,8.823533654E-1,4.128815651E0,9.360722542E0
2.600521410E-1,6.879365444E-2,4.083351612E0,9.582656860E0
2.792922450E-1,-1.265803218E0,4.329214573E0,1.087238789E1
2.985323500E-1,-1.084546804E0,4.747360229E0,1.142572784E1
3.177724540E-1,-9.164510965E-1,4.638486862E0,1.036331463E1
3.370125580E-1,-1.435693622E0,4.445864677E0,9.101100922E0
3.562526620E-1,-1.275374413E0,4.141975880E0,8.404191017E0
3.754927660E-1,-5.000999570E-1,3.249453068E0,5.760720730E0
3.947328700E-1,-3.337987661E-1,2.589632273E0,4.655236244E0
4.139729750E-1,1.100698471E0,3.508476257E0,5.086542606E0
4.332130790E-1,1.165304661E0,4.103092670E0,6.265605927E0
4.524531830E-1,2.949153781E-1,3.832703590E0,8.774480820E0
4.716932870E-1,-9.750752151E-2,3.861417532E0,1.038006496E1
4.909333910E-1,-2.518445849E-1,3.974478483E0,1.056909752E1
5.101734950E-1,-7.447660565E-1,4.138985157E0,9.435498238E0
5.294136000E-1,-1.252044439E0,4.494917393E0,8.132605553E0
5.486537040E-1,-7.591229677E-1,5.073980331E0,6.029912949E0
5.678938080E-1,-1.037288666E0,5.517848969E0,7.738986492E0
5.871339120E-1,-4.857429862E-1,5.333003521E0,8.955737114E0
6.063740160E-1,-5.312066078E-1,5.457430363E0,8.481958389E0
6.256141200E-1,-1.405783296E-1,5.305486202E0,9.905089378E0
6.448542250E-1,8.632107973E-1,4.503890514E0,1.122054386E1
6.640943290E-1,1.089930773E0,3.502494097E0,9.659226418E0
6.833344330E-1,1.585244983E-1,4.131806374E0,5.970690727E0
7.025745370E-1,5.180460811E-1,4.907679081E0,7.615756035E0
7.218146410E-1,1.471585870E0,4.652843475E0,1.008036327E1
7.410547450E-1,1.437488198E0,4.195814610E0,1.077488041E1
7.602948500E-1,6.909275651E-1,3.925425529E0,1.000857925E1
7.795349540E-1,8.039883971E-1,3.824328899E0,9.243474007E0
7.987750580E-1,1.573280931E0,3.506083488E0,1.036510944E1
8.180151620E-1,2.594418049E0,4.328616142E0,9.740582466E0
8.372551620E-1,2.310868502E0,4.767699242E0,8.609973907E0
8.564952660E-1,1.881955028E0,5.013561726E0,9.138189316E0
8.757353700E-1,1.999203324E0,4.955535889E0,9.622138023E0
8.949754750E-1,2.670390129E0,5.464010715E0,8.197212219E0
9.142155790E-1,1.951346874E0,6.230311871E0,7.369893551E0
9.334556830E-1,9.834501147E-1,5.483152866E0,8.246863365E0
9.526957870E-1,3.212364316E-1,4.460221291E0,8.816354752E0
9.719358910E-1,7.657032609E-1,4.294518471E0,8.002197266E0
9.911759950E-1,1.515853167E0,4.362115860E0,7.203592777E0
1.010416100E0,1.068395257E0,4.521238327E0,8.076375008E0
1.029656204E0,5.611169338E-1,4.408177376E0,9.595218658E0
1.048896308E0,-1.196411345E-2,3.760320902E0,9.835099220E0
1.068136412E0,5.599204898E-1,3.285943747E0,8.815756798E0
1.087376516E0,1.337587833E0,3.526422262E0,7.922037601E0
1.106616516E0,2.212164640E0,3.416950703E0,6.650850773E0
1.125856620E0,2.618346214E0,2.937189817E0,5.536393166E0
1.145096725E0,4.355535507E0,2.091925144E0,6.538387775E0
1.164336829E0,6.038288116E0,1.493121386E0,6.492924213E0
1.183576933E0,5.253442287E0,1.198205948E0,4.983651161E0
1.202817037E0,4.792225361E0,9.038887620E-1,4.510470867E0
1.222057558E0,5.806782246E0,6.550351977E-1,6.730412006E0
1.241297245E0,6.677769661E0,2.584248483E-1,1.046560764E1
1.260537350E0,6.385247231E0,7.417750359E-1,1.313659668E1
1.279777454E0,4.765306473E0,8.673982024E-1,1.485225010E1
1.299017558E0,1.695913076E0,1.312463164E0,1.656431389E1
1.318257558E0,-2.033899166E-2,2.501097918E0,1.623051643E1
1.337497662E0,1.728814393E-1,3.882952929E0,1.641775513E1
1.356737766E0,-1.056431174E0,4.683351994E0,1.686940002E1
1.375977870E0,-2.285145521E0,4.817350388E0,1.667019653E1
1.395217975E0,-2.642274380E0,4.432105541E0,1.734557152E1
1.414458079E0,-3.826721668E0,4.076173306E0,1.808734703E1
1.433698183E0,-5.151148796E0,3.588037491E0,1.604746437E1
1.452938287E0,-5.789434433E0,3.777070522E0,1.236371422E1
1.472178391E0,-4.899304390E0,3.949951887E0,9.568898201E0
1.491418391E0,-3.510270834E0,4.250251293E0,8.670990944E0
1.510658495E0,-3.971487284E0,4.586442947E0,7.256234646E0
1.529898600E0,-5.690132141E0,5.325825214E0,5.729015827E0
1.549138704E0,-5.710471153E0,5.921638012E0,3.200998545E0
1.568378808E0,-5.077569485E0,6.339783669E0,3.076571703E0
1.587618912E0,-2.648854733E0,6.044867992E0,7.170093060E0
1.606859016E0,4.893322289E-1,4.822135925E0,1.242592812E1
1.626099120E0,2.679363251E0,4.009174347E0,1.573221111E1
1.645339120E0,3.564707518E0,4.647459984E0,1.462373543E1
1.664579225E0,5.282155991E0,5.745167255E0,1.240080357E1
1.683819329E0,5.409573555E0,7.579265594E0,1.643510246E1
1.703059433E0,6.154339790E0,5.858228207E0,1.577049541E1
1.722299537E0,4.559523582E0,3.623929977E0,1.163151073E1
1.741539641E0,2.955734253E0,2.747558594E0,9.669994354E0
1.760779641E0,2.070389748E0,2.355733871E0,8.836095810E0
1.780019745E0,2.109871387E0,2.902493954E0,5.603392601E0
1.799259850E0,3.982254982E0,3.134597778E0,8.225327730E-1
1.818499954E0,5.076971531E0,3.061018467E0,-1.859821439E0
1.837740058E0,4.516452789E0,1.956730723E0,-7.926225066E-1
1.856980162E0,4.262813568E0,3.649054468E-1,4.165904045E0
1.876220266E0,5.686542988E0,-9.690931439E-2,8.569893837E0
1.895460370E0,7.271788120E0,8.691928387E-1,1.004447079E1
1.914700370E0,7.731808186E0,2.527418852E0,9.885348320E0
1.933940475E0,8.024929047E0,3.648456335E0,1.159262753E1
1.953180579E0,7.469195843E0,4.762315273E0,1.250130177E1
1.972420683E0,5.094917774E0,6.388238430E0,1.015334511E1
1.991660787E0,2.496312141E0,9.000602722E0,4.188037872E0
2.010900891E0,4.253242314E-1,1.076830006E1,3.462414265E0
2.030140891E0,-8.494520187E-2,1.151306629E1,6.420541286E0
2.049380995E0,1.857428551E0,1.001216793E1,9.270393372E0
2.068621100E0,2.479562521E0,8.945567131E0,1.086341476E1
2.087861204E0,-1.160518974E-1,1.037348461E1,8.367102623E0
2.107101308E0,-2.267797709E0,1.127677536E1,4.668995380E0
2.126341412E0,-3.332603693E0,9.659825325E0,2.856431961E0
2.145581412E0,-3.697509289E0,6.891927242E0,3.530609846E0
2.164821516E0,-4.226323128E0,4.741976261E0,4.475176334E0
2.184061620E0,-4.478765965E0,3.399602890E0,3.748954773E0
2.203301725E0,-3.981656790E0,2.598605394E0,2.925225735E0
2.222541829E0,-3.430111170E0,2.396411896E0,2.843271494E0
2.241781933E0,-4.066602230E0,2.833101988E0,4.063013077E0
2.261022037E0,-5.234897614E0,3.369094372E0,5.815157413E0
2.280262037E0,-3.946362734E0,4.014558315E0,7.390830994E0
2.299502141E0,-2.049452543E0,5.641079426E0,9.659226418E0
2.318742245E0,-1.977667928E0,8.358727455E0,1.175294685E1
2.337982350E0,-6.424728632E-1,1.011087227E1,1.014975548E1
2.357222454E0,-2.021935135E-1,1.337169075E1,9.851848602E0
2.376462454E0,1.711466432E0,1.296969700E1,9.182456970E0
2.395702558E0,1.749153376E0,1.012104130E1,9.215956688E0
2.414942662E0,-4.737788737E-1,9.209974289E0,9.811170578E0
2.434182766E0,-1.688136339E0,9.460622787E0,7.514061451E0
2.453422870E0,8.769695163E-1,8.524430275E0,5.149354458E0
2.472662975E0,3.690330744E0,6.168098450E0,3.744767427E0
2.491902975E0,3.912863255E0,3.921238184E0,3.573680639E0
2.511143079E0,3.305684566E0,1.403988719E0,3.550350666E0
2.530383183E0,5.452046394E0,-2.967100143E-1,5.592624664E0
2.549623287E0,8.784649849E0,-2.032702923E0,6.381059647E0
2.568863391E0,1.113021469E1,-3.034697294E0,9.361320496E0
2.588103495E0,1.284467220E1,-2.335394859E0,1.124746323E1
2.607343495E0,1.254018497E1,-1.387837172E0,9.427123070E0
2.626583600E0,9.319445610E0,1.316052437E0,7.627720356E0
2.645823704E0,7.031907558E0,5.637490273E0,5.513661385E0
2.665063808E0,6.223731518E0,8.297112465E0,3.632902861E0
2.684303912E0,5.405984402E0,9.421739578E0,3.680161238E0
2.703543912E0,6.093322754E0,7.112665176E0,6.331408501E0
2.722784016E0,6.037689686E0,4.737190723E0,1.483550072E1
2.742024120E0,4.081557274E0,4.506881237E0,2.078525352E1
2.761264225E0,1.826321840E0,5.787041664E0,2.111187363E1
2.780504329E0,1.914258115E-2,5.975476265E0,1.869272995E1
2.799744433E0,-1.752144337E0,5.534598827E0,1.620539093E1
2.818984433E0,-3.598206997E0,5.961717606E0,1.308515072E1
2.838224537E0,-4.639084816E0,6.767500877E0,9.575477600E0
2.857464641E0,-4.966303349E0,7.763513088E0,6.854240417E0
2.876704745E0,-6.750751019E0,8.181060791E0,6.102894306E0
2.895944850E0,-1.009053326E1,7.508677483E0,8.014759064E0
2.915184850E0,-1.214596748E1,5.532804012E0,9.916455269E0
2.934424954E0,-1.164347458E1,3.604787350E0,1.144905853E1
2.953665058E0,-8.938986778E0,2.585444927E0,1.328375530E1
2.972905162E0,-5.936593056E0,3.975674868E0,1.563589954E1
2.992145266E0,-2.132004976E0,7.199405193E0,1.620240021E1
3.011385370E0,4.399204254E0,9.591629982E0,1.582253933E1
3.030625370E0,7.618747234E0,1.048654556E1,1.586441422E1
3.049865475E0,1.028195858E1,7.773682594E0,1.305823135E1
3.069105579E0,9.553344727E0,6.875177860E0,1.322752380E1
3.088345683E0,8.264809608E0,5.392225742E0,1.246361542E1
3.107585787E0,5.825326920E0,3.343371391E0,1.100459099E1
3.126825787E0,4.268197536E0,1.577468276E0,8.938388824E0
3.146065891E0,5.248058319E0,2.153540403E-1,7.034898758E0
3.165305995E0,6.802794933E0,-8.656035662E-1,5.459823132E0
3.184546100E0,9.877572060E0,-1.658226132E0,2.619542599E0
3.203786204E0,1.328196049E1,-2.760719061E0,-7.872386575E-1
3.223026204E0,1.405723476E1,-3.775874138E0,-2.148156643E0
3.242266308E0,1.368215942E1,-3.540779352E0,-3.006581545E0
3.261506412E0,1.381855106E1,-1.731805444E0,-3.623331785E0
3.280746516E0,1.203589821E1,5.611169338E-1,-3.223132133E0
3.299986620E0,7.889136314E0,4.081557274E0,-5.188836098E0
3.319226620E0,5.370092392E0,6.549753666E0,-8.671588898E0
3.338466725E0,3.207578659E0,7.201199532E0,-6.938587666E0
3.357706829E0,5.377270699E0,3.901497364E0,5.275575638E0
3.376946933E0,1.317787266E1,1.450648785E0,2.285025978E1
3.396187037E0,1.317069435E1,4.045066833E0,2.987199783E1
3.415427037E0,7.457231998E0,9.781859398E0,2.823650360E1
3.434667141E0,5.584249973E0,1.276630688E1,2.287837601E1
3.453907245E0,4.153341770E0,1.317787266E1,1.651885033E1
3.473147350E0,1.047458172E0,1.257847023E1,1.148375416E1
3.492387454E0,-2.059622049E0,1.208734322E1,8.968298912E0
3.511627454E0,-4.074976921E0,1.267119217E1,8.069794655E0
3.530867558E0,-6.591030121E0,1.313779259E1,9.296115875E0
3.550107662E0,-8.504091263E0,1.195753288E1,1.231765270E1
3.569347766E0,-8.630910873E0,8.701499939E0,1.580160236E1
3.588587870E0,-8.527421951E0,5.050650597E0,1.710269928E1
3.607827870E0,-7.262216568E0,2.371287346E0,1.576570988E1
3.627067975E0,-6.410970211E0,2.180459738E0,1.263649654E1
3.646308079E0,-3.172284603E0,5.429314613E0,1.002951622E1
3.665548183E0,5.447260857E0,8.491529465E0,1.391904926E1
3.684788287E0,1.610130310E1,7.360920429E0,1.567777443E1
3.704028287E0,2.221795654E1,5.189434052E0,1.398006630E1
3.723268391E0,2.256312180E1,3.742374659E0,1.263470173E1
3.742508495E0,1.842353821E1,2.267797709E0,8.950951576E0
3.761748600E0,1.194018459E1,1.049850941E0,6.817749977E0
3.780988704E0,7.880761147E0,3.098705411E-1,6.555137634E0
3.800228704E0,7.205387115E0,7.214360237E-1,6.415755749E0
3.819468808E0,8.082955360E0,1.688136339E0,4.931009293E0
3.838708912E0,8.346763611E0,1.886142492E0,2.532204628E0
3.857949016E0,7.718049526E0,1.548156261E0,1.359721422E0
3.877189120E0,6.548557281E0,1.199402332E0,2.110469580E0
3.896429120E0,5.598606586E0,1.417149186E0,3.257827997E0
3.915669225E0,4.488935471E0,2.189432621E0,4.668995380E0
3.934909329E0,2.048256159E0,3.728615999E0,4.467998028E0
3.954149433E0,-6.077769399E-1,6.703492641E0,1.922034740E0
3.973389433E0,2.997010350E-1,1.014736271E1,4.660021961E-1
3.992629537E0,3.352942705E0,1.098425198E1,2.725425005E0
4.011869641E0,5.688337803E0,9.259027481E0,9.086145401E0
4.031109745E0,5.326423168E0,7.553543091E0,1.063310528E1
4.050349850E0,4.998008251E0,6.253043652E0,9.533005714E0
4.069589850E0,5.497509956E0,5.258825779E0,7.667799950E0
4.088829954E0,6.564110756E0,4.907081127E0,6.126224041E0
4.108070058E0,7.350750923E0,4.320839405E0,5.208576679E0
4.127310162E0,5.882156372E0,3.888935089E0,4.627718925E0
4.146550162E0,3.602394581E0,4.529015064E0,4.784449100E0
4.165790266E0,1.154536903E-1,6.644270420E0,6.279364586E0
4.185030370E0,-1.695314884E0,9.432506561E0,9.150752068E0
4.204270475E0,-4.161716938E0,1.227398396E1,1.169073296E1
4.223510475E0,-5.957530022E0,1.516391563E1,1.140419292E1
4.242750579E0,-3.218944550E0,1.727917099E1,1.661815262E1
4.261990683E0,5.207380295E0,1.685923004E1,2.174118614E1
4.281230787E0,1.310070419E1,1.356072426E1,2.097129631E1
4.300470787E0,1.315872955E1,9.663414001E0,1.580160236E1
4.319710891E0,9.318847656E0,7.295716286E0,1.048176003E1
4.338950995E0,7.160521984E0,6.995417118E0,6.802196503E0
4.358191100E0,6.947560310E0,7.253243446E0,4.753940582E0
4.377431204E0,7.884948730E0,6.299105644E0,3.582055569E0
4.396671204E0,8.347361565E0,3.669991732E0,2.526820660E0
4.415911308E0,7.414160728E0,8.961120844E-1,-1.734796353E-2
4.435151412E0,5.837889194E0,-1.197607756E0,-3.087937593E0
4.454391516E0,5.806184292E0,-3.024527788E0,-5.378467083E0
4.473631516E0,6.791429043E0,-4.022335052E0,-5.871388435E0
4.492871620E0,7.910073280E0,-4.177868366E0,-4.520041943E0
4.512111725E0,8.968897820E0,-3.582055569E0,-3.476771355E0
4.531351829E0,9.352945328E0,-2.615355253E0,-4.003790379E0
4.550591829E0,9.335597992E0,-1.307677627E0,-4.253242016E0
4.569831933E0,1.029930687E1,7.824530005E-1,-9.535398483E-1
4.589072037E0,1.216271782E1,4.688735962E0,6.690930367E0
4.608312037E0,1.181635666E1,9.139386177E0,1.744068527E1
4.627552141E0,1.116790104E1,1.319103336E1,2.672244453E1
4.646792245E0,1.077906799E1,1.441795254E1,3.132683372E1
4.666032350E0,1.125763226E1,1.284826088E1,3.007419205E1
4.685272350E0,9.731011391E0,1.129292679E1,2.260439682E1
4.704512454E0,6.032904148E0,1.197129154E1,1.197547913E1
4.723752558E0,3.677170277E0,1.281536007E1,3.704089403E0
4.742992662E0,2.531008244E0,1.218724346E1,1.706680775E0
4.762232662E0,1.315454245E0,1.070130062E1,2.929413080E0
4.781472766E0,6.185446382E-1,9.635896683E0,4.239483356E0
4.800712870E0,-8.817551732E-1,8.933603287E0,3.774079561E0
4.819952870E0,-3.644867182E0,8.187641144E0,3.617947817E0
4.839192975E0,-6.243472576E0,8.112266541E0,5.471189022E0
4.858433079E0,-6.519843578E0,8.273183823E0,7.980661869E0
4.877673183E0,-5.216951370E0,7.781459332E0,9.633503914E0
4.896913183E0,-4.067200184E0,6.911069870E0,9.909874916E0
4.916153287E0,-3.738187075E0,6.978068829E0,9.205188751E0
4.935393391E0,-4.010370731E0,8.740981102E0,9.316454887E0
4.954633391E0,-2.346162558E0,1.091246796E1,1.189472103E1
4.973873495E0,1.230509043E0,1.173918819E1,1.635374641E1
4.993113600E0,4.885545731E0,1.114397335E1,1.881117439E1
5.012353704E0,7.229913712E0,8.439485550E0,1.572682667E1
5.031593704E0,6.224927902E0,6.251847267E0,1.198564816E1
5.050833808E0,4.445864677E0,4.701896667E0,1.070309544E1
5.070073912E0,4.633102894E0,3.019742250E0,1.018564796E1
5.089313912E0,5.150550842E0,1.485344648E0,8.407780647E0
5.108554016E0,6.319444656E0,7.597211748E-2,4.435096741E0
5.127794120E0,8.097909927E0,-1.986042738E0,-3.571287692E-1
5.147034120E0,8.449654579E0,-4.279563427E0,-3.354737282E0
5.166274225E0,7.905287743E0,-5.928217888E0,-3.279961586E0
5.185514329E0,8.947959900E0,-6.123831272E0,-2.088934183E0
5.204754433E0,9.971489906E0,-5.833701611E0,-5.054838061E-1
5.223994433E0,1.073121166E1,-5.306084156E0,1.969292998E0
5.243234537E0,1.198505020E1,-4.112065792E0,3.575475216E0
5.262474641E0,1.275434303E1,-1.847259045E0,5.281557560E0
5.281714641E0,1.347458267E1,1.608574986E0,6.537789822E0
5.300954745E0,1.168714428E1,6.461817741E0,2.660818815E0
5.320194850E0,1.197248840E1,9.888339996E0,3.669393539E0
5.339434850E0,1.573639774E1,1.063250732E1,1.006720352E1
5.358674954E0,1.758186340E1,1.076889801E1,1.890569115E1
5.377915058E0,1.514596939E1,1.107458115E1,2.430270386E1
5.397155058E0,8.687741280E0,1.179123211E1,2.205883408E1
5.416395162E0,4.475176334E0,1.341117287E1,1.683829308E1
5.435635266E0,3.600599766E0,1.310788250E1,1.279741383E1
5.454875266E0,2.398804665E0,1.139043427E1,9.896714211E0
5.474115370E0,1.914856315E0,9.692726135E0,7.396214962E0
5.493355475E0,-1.561316848E-1,8.719446182E0,4.847858906E0
5.512595475E0,-2.559721947E0,8.525627136E0,3.226721287E0
5.531835579E0,-4.578067780E0,8.732605934E0,3.542573929E0
5.551075683E0,-6.457630157E0,8.349754333E0,6.572485447E0
5.570315683E0,-8.001599312E0,7.585845947E0,1.006062317E1
5.589555787E0,-9.722038269E0,6.082555294E0,1.072582722E1
5.608795891E0,-9.698708534E0,5.160121918E0,1.061456108E1
5.628035891E0,-6.914659023E0,5.578866005E0,1.105125141E1
5.647275995E0,-2.135594130E0,6.428916454E0,1.313420391E1
5.666515995E0,9.092726111E-1,7.572087288E0,1.388614845E1
5.685756100E0,2.356332064E0,1.040877819E1,1.152981567E1
5.704996204E0,5.882156372E0,1.219083309E1,1.198624706E1
5.724236204E0,9.175876617E0,1.201735306E1,1.150588799E1
5.743476308E0,9.295517921E0,8.526225090E0,7.979465485E0
5.762716412E0,5.420939922E0,7.183851719E0,7.496713161E0
5.781956412E0,3.513859987E0,6.394818306E0,6.951149940E0
5.801196516E0,3.659224033E0,4.475774765E0,6.374479294E0
5.820436620E0,4.566701889E0,2.556730986E0,3.516851187E0
5.839676620E0,5.361717224E0,-5.030909777E-1,-3.768695593E-1
5.858916725E0,4.738387108E0,-2.967698336E0,-2.944368362E0
5.878156725E0,5.584847927E0,-3.782454491E0,-3.762115479E0
5.897396829E0,8.551349640E0,-4.099503517E0,-4.151547432E0
5.916636933E0,1.043091202E1,-4.223331928E0,-4.045066833E0
5.935876933E0,1.237747288E1,-3.768695593E0,-3.716651678E0
5.955117037E0,1.467039585E1,-2.362314224E0,-1.995614052E0
5.974357037E0,1.763869286E1,1.120439172E0,1.274776220E0
5.993597141E0,1.623530197E1,6.010770321E0,1.543370634E-1
6.012837245E0,1.282792187E1,1.152742290E1,-2.374876499E0
6.032077245E0,1.666242027E1,1.279322624E1,3.845864296E0
6.051317350E0,2.224487495E1,1.267837048E1,1.245284748E1
6.070557350E0,2.335634232E1,1.168834019E1,2.196790695E1
6.089797454E0,1.713978767E1,1.125703430E1,2.496671104E1
6.109037558E0,8.478966713E0,1.239362526E1,2.186322021E1
6.128277558E0,3.626322746E0,1.199821091E1,1.580279922E1
6.147517662E0,1.254437327E0,1.062054348E1,1.016949654E1
6.166757662E0,-1.980060786E-1,9.962516785E0,5.545964718E0
6.185997766E0,-1.473380566E0,8.949754715E0,2.557927370E0
6.205237870E0,-3.132802963E0,8.100900650E0,3.092125177E0
6.224477870E0,-5.039882660E0,7.241877556E0,5.660222054E0
6.243717975E0,-6.161518097E0,7.002595425E0,9.074181557E0
6.262957975E0,-6.604788780E0,7.116254330E0,1.098544884E1
6.282198079E0,-7.118647575E0,7.432106972E0,1.140658569E1
6.301438079E0,-7.609176159E0,6.449853420E0,1.081256771E1
6.320678183E0,-8.264211655E0,5.362315655E0,9.549755096E0
6.339918287E0,-5.829514027E0,5.375475883E0,9.359525681E0
6.359158287E0,-2.572284460E0,8.982656479E0,8.772088051E0
6.378398391E0,4.624129832E-1,1.655713654E1,8.560322762E0
6.397638391E0,1.179302597E1,2.006022835E1,1.123250771E1
6.416878495E0,1.873699760E1,1.818844223E1,1.610369682E1
6.436118495E0,1.998664856E1,1.259282780E1,1.760160255E1
6.455358600E0,1.913121605E1,9.466604233E0,1.797488403E1
6.474598600E0,1.882373810E1,5.583651543E0,1.512921906E1
6.493838704E0,1.574896049E1,1.895115495E0,1.173200989E1
6.513078704E0,1.053380394E1,2.895315289E-1,7.924430370E0
6.532318808E0,8.532207489E0,-1.188634634E0,3.393620729E0
6.551558912E0,7.400402069E0,-2.204986095E0,-8.344969153E-1
6.570798912E0,6.393621922E0,-2.222932339E0,-4.304687977E0
6.590039016E0,5.733801365E0,-2.639283419E0,-6.611369133E0
6.609279016E0,5.452046394E0,-3.196810961E0,-6.911069870E0
6.628519120E0,5.057828903E0,-3.450450182E0,-6.954140663E0
6.647759120E0,4.666004181E0,-3.407977581E0,-8.712865829E0
6.666999225E0,3.830310822E0,-2.536391973E0,-1.066839981E1
6.686239225E0,1.787438512E0,-1.614557028E0,-1.209153080E1
6.705479329E0,-2.169692039E0,-3.535395563E-1,-1.477627850E1
6.724719329E0,-1.789233088E0,6.035895348E-1,-1.694776535E1
6.743959433E0,3.594019651E0,1.287936807E0,-1.354756355E1
6.763199433E0,1.739462471E1,2.170290232E0,1.734796353E-2
6.782439537E0,3.347858047E1,6.687341213E0,1.737488365E1
6.801679537E0,3.127359390E1,1.357627773E1,2.566900444E1
6.820919641E0,2.399821663E1,1.790250015E1,2.203071785E1
6.840159641E0,2.160000992E1,1.894696808E1,1.668993759E1
6.859399745E0,1.593440437E1,1.769133377E1,1.041296577E1
6.878639745E0,1.008455086E1,1.532303810E1,4.555335999E0
6.897879850E0,6.141777515E0,1.313779259E1,8.003991842E-1
6.917119850E0,3.527020693E0,1.219083309E1,6.179464459E-1
6.936359954E0,1.215553880E0,1.049192905E1,2.869592667E0
6.955599954E0,-1.469791293E0,8.907281876E0,6.695117950E0
6.974840058E0,-3.723830223E0,7.272386074E0,9.839286804E0
6.994080058E0,-6.445067883E0,5.703292847E0,1.233021545E1
7.013320162E0,-7.831110477E0,4.167698860E0,1.385085392E1
7.032560162E0,-6.945765972E0,1.897508383E0,1.453579903E1
7.051800266E0,-6.529414654E0,-9.930214286E-2,1.491087437E1
7.071040266E0,-7.155138016E0,-7.591229677E-1,1.504487228E1
7.090280370E0,-6.135197163E0,1.138983607E0,1.721695709E1
7.109520370E0,-3.802793503E0,4.345963955E0,1.983709717E1
7.128760370E0,4.326821327E0,7.529614449E0,2.458326149E1
7.148000475E0,2.041556358E1,7.114459991E0,3.367419434E1
7.167240475E0,3.599583054E1,5.771488190E0,3.745006561E1
7.186480579E0,4.405066681E1,6.860820770E0,2.929652405E1
7.205720579E0,4.078326797E1,5.890531063E0,1.625922966E1
7.224960683E0,3.392842865E1,4.140181541E0,9.123832703E0
7.244200683E0,2.785185814E1,2.169692039E0,6.367300987E0
7.263440787E0,2.263071823E1,-1.088734269E-1,3.745963812E0
7.282680787E0,1.751905060E1,-2.454437733E0,9.511470199E-1
7.301920891E0,1.368574905E1,-4.153341770E0,-1.028315544E0
7.321160891E0,1.141436195E1,-5.812764645E0,-2.473580360E0
7.340400891E0,9.929018021E0,-7.949554920E0,-3.641277790E0
7.359640995E0,8.175676346E0,-8.810373306E0,-5.871388435E0
7.378880995E0,6.334998131E0,-8.099704742E0,-8.931808472E0
7.398121100E0,4.022933006E0,-6.899703979E0,-1.154716396E1
7.417361100E0,2.616551638E0,-6.377470493E0,-1.271545982E1
7.436601204E0,2.879761934E0,-6.200401783E0,-1.322393417E1
7.455841204E0,2.458027124E0,-4.953741074E0,-1.327777290E1
7.475081204E0,2.632703066E0,-3.747160196E0,-1.114098263E1
7.494321308E0,7.858029366E0,-1.050449133E0,-1.706680775E0
7.513561308E0,2.072244263E1,5.367101192E0,1.749811363E1
7.532801412E0,2.959383202E1,1.504905987E1,3.321955490E1
7.552041412E0,2.786441994E1,2.169392776E1,2.783391190E1
7.571281516E0,2.195833588E1,2.194517517E1,1.396570969E1
7.590521516E0,1.389093399E1,1.929931068E1,5.433502197E0
7.609761516E0,8.627920151E0,1.603191185E1,3.580260992E0
7.629001620E0,5.237888813E0,1.298943806E1,4.182055950E0
7.648241620E0,2.653640270E0,1.043569756E1,4.114458561E0
7.667481620E0,8.703892231E-1,8.958727837E0,3.256033421E0
7.686721725E0,-4.121637046E-1,7.944170952E0,2.644068956E0
7.705961725E0,-1.045065284E0,7.061219692E0,3.628715515E0
7.725201829E0,-9.122636318E-1,6.423532486E0,5.358128071E0
7.744441829E0,1.022931710E-1,6.199205399E0,6.613163471E0
7.763681829E0,7.998009920E-1,5.519045353E0,7.878966808E0
7.782921933E0,6.699903607E-1,4.857429981E0,9.130413055E0
7.802161933E0,1.604387641E0,5.394020557E0,1.077667522E1
7.821402037E0,3.128017426E0,7.640282631E0,1.396630764E1
7.840642037E0,7.405786037E0,1.361755371E1,2.014636993E1
7.859882037E0,2.059980965E1,1.822792435E1,2.496491623E1
7.879122141E0,2.903869820E1,1.729711723E1,1.826740646E1
7.898362141E0,2.900400162E1,1.361874962E1,1.035194874E1
7.917602141E0,2.596631241E1,8.272585869E0,7.856235027E0
7.936842245E0,1.858146477E1,3.199802160E0,7.104290485E0
7.956082245E0,1.051466084E1,4.426721931E-1,7.126423836E0
7.975322350E0,6.208178520E0,-8.709874153E-1,6.964908600E0
7.994562350E0,4.968696117E0,-1.754537225E0,4.977071285E0
8.013802350E0,3.920639992E0,-3.058625460E0,2.079961061E0
8.033042454E0,2.597409010E0,-4.537389755E0,3.649054468E-2
8.052282454E0,2.413161755E0,-5.418546677E0,-1.581655741E0
8.071522454E0,3.124428272E0,-6.358327866E0,-2.895913601E0
8.090762558E0,4.316053867E0,-7.267002583E0,-3.230908871E0
8.110002558E0,5.766702652E0,-7.101897717E0,-3.655634880E0
8.129242558E0,6.582654953E0,-5.603392601E0,-5.008177757E0
8.148482662E0,6.220142365E0,-4.000799656E0,-7.004390240E0
8.167722662E0,4.984847546E0,-2.941975355E0,-8.591429710E0
8.186962662E0,5.370092392E0,-1.613360643E0,-8.534002304E0
8.206202766E0,7.240083218E0,9.607182741E-1,-7.710870743E0
8.225442766E0,1.229492092E1,4.723432064E0,-3.452244759E0
8.244682766E0,2.397967148E1,7.561917782E0,6.253043652E0
8.263922870E0,3.273740387E1,1.264307690E1,1.363669586E1
8.283162870E0,3.162952614E1,1.569452381E1,1.160279655E1
8.302402870E0,2.158804512E1,1.640878105E1,4.201796532E0
8.321642975E0,1.501017666E1,1.641117477E1,1.826321840E0
8.340882975E0,1.559522152E1,1.479601860E1,3.673580885E0
8.360122975E0,1.424985695E1,1.172961617E1,4.369892120E0
8.379362975E0,1.026341438E1,8.556734085E0,4.367499352E0
8.398603079E0,5.426323414E0,6.230910301E0,4.261617184E0
8.417843079E0,2.949153781E-1,4.859224796E0,4.979464054E0
8.437083079E0,-3.027518749E0,4.347758770E0,6.844070911E0
8.456323183E0,-4.218546391E0,5.666203976E0,9.577870369E0
8.475563183E0,-4.701298237E0,7.835297585E0,1.147537899E1
8.494803183E0,-4.785645485E0,9.098110199E0,1.228594780E1
8.514043287E0,-5.135595798E0,9.707083702E0,1.270469189E1
8.533283287E0,-4.340580463E0,8.957531929E0,1.271545982E1
8.552523287E0,-1.587039590E0,7.859824181E0,1.438983727E1
8.571763287E0,1.015753269E0,7.334599495E0,1.568315792E1
8.591003391E0,4.446462631E0,8.976076126E0,1.538226032E1
8.610243391E0,9.863813400E0,1.016889763E1,1.438385487E1
8.629483391E0,1.071805096E1,1.126780224E1,1.358345604E1
8.648723495E0,1.186301613E1,7.889734268E0,8.288737297E0
8.667963495E0,1.019701385E1,5.440082073E0,4.230510235E0
8.687203495E0,8.338388443E0,4.840680122E0,5.717051506E0
8.706443600E0,7.913662910E0,2.379662037E0,5.249852657E0
8.725683600E0,8.319844246E0,1.715055585E0,2.172084808E0
8.744923600E0,8.757730484E0,8.572286963E-1,-1.576870084E0
8.764163600E0,7.793423176E0,-1.353141189E0,-3.049054146E0
8.783403704E0,6.522236347E0,-2.349751949E0,-1.725225091E0
8.802643704E0,7.351349354E0,-1.551745534E0,3.966103494E-1
8.821883704E0,9.599406242E0,-8.135597110E-1,1.951346874E0
8.841123704E0,1.056610680E1,2.464607358E-1,3.900899172E0
8.860363808E0,1.044586754E1,1.444068432E0,6.582056999E0
8.879603808E0,9.726225853E0,3.568296671E0,8.708678246E0
8.898843808E0,7.839485168E0,5.553143024E0,1.028076267E1
8.918083912E0,3.013760090E0,8.652446747E0,9.360722542E0
8.937323912E0,2.452643216E-1,1.180798149E1,6.473183632E0
8.956563912E0,-1.657029688E-1,1.264606762E1,4.890331268E0
8.975803912E0,2.103291035E0,1.003011417E1,8.509475708E0
8.995044016E0,4.206582069E0,8.239086151E0,1.510828209E1
9.014284016E0,2.215155602E0,1.023769188E1,1.601037598E1
9.033524016E0,1.226919770E0,1.245583820E1,1.082871914E1
9.052764016E0,5.162515044E-1,1.200658607E1,6.121438503E0
9.072004120E0,-1.307677627E0,1.043031406E1,4.678566456E0
9.091244120E0,-2.097309113E0,8.171489716E0,4.395017147E0
9.110484120E0,-2.967698336E0,6.059823513E0,3.601198196E0
9.129724120E0,-3.602992773E0,4.613361835E0,2.513660192E0
9.148964225E0,-4.006183147E0,3.943371773E0,2.742174864E0
9.168204225E0,-4.520640373E0,3.470191002E0,4.218546391E0
9.187444225E0,-4.862813950E0,3.357728481E0,5.109274387E0
9.206684225E0,-5.584847927E0,3.461816072E0,4.926821709E0
9.225924329E0,-6.695117950E0,3.390629768E0,5.176871777E0
9.245164329E0,-7.303493023E0,4.922036171E0,7.303493023E0
9.264404329E0,-5.393422127E0,7.447660446E0,8.620741844E0
9.283644329E0,-9.535398483E-1,8.393424034E0,1.035374355E1
9.302884433E0,1.851446509E0,8.550153732E0,1.307797241E1
9.322124433E0,1.685145378E0,6.198009014E0,1.396929836E1
9.341364433E0,1.956132501E-1,4.925625324E0,1.287278748E1
9.360604433E0,-1.266401410E0,5.244469166E0,1.021137047E1
9.379844537E0,1.951346874E0,5.347958565E0,9.395418167E0
9.399084537E0,3.495913982E0,4.811367989E0,8.995817184E0
9.418324537E0,3.619144201E0,3.515654564E0,6.498308182E0
9.437564537E0,3.311666489E0,2.005783558E0,3.353540897E0
9.456804537E0,3.756133318E0,1.005583763E0,1.565504193E0
9.476044641E0,6.356533527E0,5.593222976E-1,1.569093466E0
9.495284641E0,8.763114929E0,-5.270192027E-1,2.717050076E0
9.514524641E0,1.009172916E1,-1.505683661E0,4.417748928E0
9.533764641E0,9.830911636E0,-8.841479421E-1,5.187639713E0
9.553004745E0,9.893125534E0,4.181457460E-1,4.175475597E0
9.572244745E0,9.132207870E0,1.858624935E0,2.960519791E0
9.591484745E0,8.560322762E0,4.090530396E0,2.045265198E0
9.610724745E0,6.100501537E0,8.812167168E0,3.378067255E0
9.629964850E0,6.808178425E0,6.391827583E0,4.146761417E0
9.649204850E0,6.614359856E0,3.854238987E0,1.180379391E1
9.668444850E0,1.066421223E1,3.428316593E0,2.059382820E1
9.687684850E0,1.119123173E1,4.685744762E0,2.415674019E1
9.706924850E0,1.059960651E1,7.198208809E0,2.246381950E1
9.726164954E0,9.532406807E0,7.913662910E0,1.842652893E1
9.745404954E0,7.618149281E0,8.456833839E0,1.516152287E1
9.764644954E0,5.938985825E0,7.874779224E0,1.298046494E1
9.783884954E0,3.856631994E0,7.961519241E0,1.200838089E1
9.803125058E0,-1.167697430E0,8.554939270E0,1.025862885E1
9.822365058E0,-6.374479294E0,8.355138779E0,1.114875889E1
9.841605058E0,-1.094596672E1,8.612964630E0,1.531107426E1
9.860845058E0,-1.332203960E1,7.272386074E0,1.760878181E1
9.880085058E0,-1.447597885E1,5.386841774E0,1.795633888E1
9.899325162E0,-1.427617836E1,3.488137245E0,1.889671898E1
9.918565162E0,-1.025563812E1,8.991031051E-1,1.973360825E1
9.937805162E0,-5.916851997E0,-2.813361168E0,1.868794441E1
9.957045162E0,-3.078964472E0,-5.298905849E0,1.750828362E1
9.976285266E0,1.859223247E0,-5.931209087E0,1.632383537E1
9.995525266E0,8.235497475E0,-5.103890896E0,1.601875114E1
1.001476527E1,1.058883858E1,-1.277767301E0,1.376889992E1
1.003400527E1,1.259880924E1,-1.722832322E-1,9.791430473E0
1.005324527E1,1.238166046E1,7.944171429E-1,9.175278664E0
1.007248537E1,1.115653515E1,8.745766878E-1,8.501698494E0
1.009172537E1,8.479565620E0,-2.386840582E-1,7.482356548E0
1.011096537E1,5.622535229E0,-2.027917206E-1,6.790830612E0
1.013020537E1,6.828517437E0,5.341976285E-1,6.917052269E0
1.014944537E1,9.590433121E0,1.814955950E0,7.870592117E0
1.016868548E1,1.082871914E1,2.799004316E0,9.661021233E0
1.018792548E1,1.019462109E1,3.096312523E0,1.060020447E1
1.020716548E1,9.303893089E0,3.542573929E0,9.290133476E0
1.022640548E1,1.027358437E1,3.360719442E0,7.449455261E0
1.024564548E1,1.081436157E1,2.697309256E0,7.873582840E0
1.026488558E1,8.486145973E0,1.865803480E0,7.966304779E0
1.028412558E1,5.212165833E0,2.124228239E0,6.255436420E0
1.030336558E1,3.030509949E0,4.294518471E0,3.568296671E0
1.032260558E1,2.327019930E0,6.699305058E0,3.055036306E0
1.034184558E1,1.074975610E0,8.352746010E0,6.506682873E0
1.036108568E1,5.742774606E-1,8.469395638E0,7.176074982E0
1.038032568E1,1.816152334E0,7.697112083E0,8.936594009E0
1.039956568E1,2.711068153E0,8.479565620E0,1.116012478E1
1.041880568E1,1.984248161E0,1.041715336E1,7.430910587E0
1.043804568E1,2.111665964E0,1.186540890E1,3.826123476E0
1.045728568E1,1.986641049E0,1.158425236E1,2.940180779E0
1.047652579E1,4.175475538E-1,9.824331284E0,2.902493954E0
1.049576579E1,-1.471585870E0,7.846663475E0,3.008974552E0
1.051500579E1,-2.952743053E0,6.252445698E0,2.803191662E0
1.053424579E1,-3.973880291E0,5.137988567E0,2.382653236E0
1.055348579E1,-3.524627686E0,4.604987144E0,2.928814888E0
1.057272589E1,-2.843869686E0,4.496711731E0,3.820739508E0
1.059196589E1,-3.524627686E0,3.777668715E0,3.912265062E0
1.061120589E1,-4.807180882E0,3.273381472E0,3.478565931E0
1.063044589E1,-4.888536453E0,4.080360889E0,4.293322086E0
1.064968589E1,-3.948755503E0,6.052046776E0,7.304090977E0
1.066892589E1,-1.587039590E0,7.703094482E0,8.184649467E0
1.068816600E1,7.094719410E-1,9.123832703E0,7.971688747E0
1.070740600E1,-1.579262912E-1,1.133839035E1,7.966304779E0
1.072664600E1,9.876375198E-1,9.914062500E0,7.606184959E0
1.074588600E1,1.307677627E0,8.432307243E0,9.762716293E0
1.076512600E1,1.220937729E0,7.730013371E0,8.553144455E0
1.078436610E1,2.609971285E0,7.370491982E0,6.926623344E0
1.080360610E1,4.133601189E0,5.096114159E0,6.357131481E0
1.082284610E1,4.935196877E0,2.072184324E0,5.731408596E0
1.084208610E1,5.791827202E0,-3.882354796E-1,4.807180882E0
1.086132610E1,5.589633465E0,-1.355534077E0,3.119044304E0
1.088056610E1,6.666403770E0,-2.435893536E0,2.391626120E0
1.089980610E1,9.778269768E0,-2.221137524E0,3.965505362E0
1.091904620E1,1.266521072E1,-1.339382529E0,6.936194420E0
1.093828620E1,1.383889008E1,8.973085321E-3,8.126624107E0
1.095752620E1,1.349252892E1,1.537388563E0,7.132406235E0
1.097676620E1,1.152921772E1,3.329612732E0,4.871787071E0
1.099600620E1,8.449654579E0,5.598606586E0,2.973082066E0
1.101524620E1,7.978269100E0,6.573083878E0,7.648059368E0
1.103448631E1,9.453444481E0,6.987640381E0,1.410090351E1
1.105372631E1,9.811170578E0,6.102894306E0,1.997767639E1
1.107296631E1,8.923434258E0,5.327619553E0,2.465863609E1
1.109220631E1,5.733202934E0,7.128817081E0,2.184946251E1
1.111144631E1,4.636094093E0,9.671191216E0,1.660618973E1
1.113068631E1,5.714060307E0,1.074497032E1,1.432044506E1
1.114992631E1,6.051448345E0,1.058285618E1,1.234397411E1
1.116916641E1,5.274379253E0,9.486345291E0,9.413364410E0
1.118840641E1,2.175075769E0,8.187641144E0,6.325426579E0
1.120764641E1,-1.436890006E0,7.426125050E0,4.292723656E0
1.122688641E1,-4.636692047E0,7.363313675E0,4.235894203E0
1.124612641E1,-6.380461693E0,7.884948730E0,5.708078384E0
1.126536641E1,-7.144968510E0,8.117650986E0,8.181658745E0
1.128460641E1,-7.800601959E0,8.052446365E0,9.785448074E0
1.130384641E1,-8.070392609E0,7.597211838E0,1.022931671E1
1.132308652E1,-7.296314240E0,5.824130535E0,1.085683441E1
1.134232652E1,-5.690730572E0,3.528217077E0,1.198684502E1
1.136156652E1,-5.632106304E0,3.758526087E0,1.183490086E1
1.138080693E1,-4.000799656E0,6.133402824E0,9.680762291E0
1.140004652E1,1.158724308E0,9.194420815E0,1.374018574E1
1.141928652E1,6.527620316E0,8.451449394E0,2.124587250E1
1.143852652E1,9.311669350E0,5.790032387E0,2.217667961E1
1.145776662E1,1.253599739E1,3.606581926E0,2.209352875E1
1.147700662E1,1.670608902E1,2.217548370E0,2.113819504E1
1.149624662E1,1.647458458E1,8.638089895E-1,1.710868263E1
1.151548662E1,1.374018574E1,-1.657029688E-1,1.092024422E1
1.153472662E1,1.226680565E1,-7.692924738E-1,6.403791428E0
1.155396662E1,1.130489063E1,-1.124028444E0,3.458825111E0
1.157320662E1,1.005942631E1,-1.246062398E0,-1.752742529E-1
1.159244662E1,8.589036942E0,-8.021938205E-1,-3.208176851E0
1.161168672E1,7.946564198E0,-6.334998012E-1,-4.211966038E0
1.163092672E1,7.820342541E0,-1.548754454E0,-3.565903902E0
1.165016672E1,7.338787079E0,-2.986840963E0,-2.445464849E0
1.166940672E1,6.679564476E0,-3.381058455E0,-2.295913219E0
1.168864672E1,6.038886070E0,-2.106282234E0,-4.052245140E0
1.170788673E1,5.367101192E0,-2.273181528E-1,-7.211369038E0
1.172712673E1,3.044268608E0,1.390828133E0,-7.484749317E0
1.174636673E1,1.509272933E0,3.151347399E0,-4.593023300E0
1.176560673E1,2.663809776E0,2.708675146E0,3.235694408E0
1.178484683E1,7.259823799E0,5.198407173E-1,1.780140495E1
1.180408683E1,1.186660576E1,2.637488842E0,2.966262627E1
1.182332683E1,1.361934853E1,6.974479675E0,2.853201675E1
1.184256683E1,1.276630688E1,1.084247780E1,2.118006897E1
1.186180683E1,1.121097183E1,1.298943806E1,1.498385525E1
1.188104683E1,8.373085022E0,1.282732391E1,1.131206894E1
1.190028683E1,4.923232555E0,1.162792206E1,9.144171715E0
1.191952683E1,1.257428288E0,1.036391354E1,7.558328629E0
1.193876683E1,-2.709273338E0,9.469595909E0,5.579464436E0
1.195800693E1,-5.596812248E0,8.684151649E0,4.172484398E0
1.197724693E1,-6.607181549E0,7.558926582E0,3.614358664E0
1.199648693E1,-6.396613121E0,6.640681267E0,4.243670940E0
1.201572693E1,-6.167500496E0,5.834897995E0,6.061019897E0
1.203496693E1,-6.205187321E0,5.213960648E0,7.229913712E0
1.205420693E1,-6.312864304E0,5.070989609E0,8.420941353E0
1.207344693E1,-5.848058701E0,5.929414749E0,1.155135155E1
1.209268693E1,-2.551347256E0,8.226524353E0,1.948415565E1
1.211192693E1,4.647459984E0,8.979066849E0,2.951427078E1
1.213116704E1,1.159322548E1,6.778866768E0,3.387459183E1
1.215040704E1,1.313181114E1,2.954537868E0,3.299403381E1
1.216964704E1,1.432343674E1,-5.904290080E-1,3.580799103E1
1.218888704E1,1.176431274E1,-5.841478348E0,3.460918808E1
1.220812704E1,9.315856934E0,-1.010369396E1,2.798944473E1
1.222736704E1,1.026161957E1,-1.108475113E1,2.253440666E1
1.224660704E1,1.239003563E1,-1.063011456E1,1.838704681E1
1.226584704E1,1.373898983E1,-9.961320877E0,1.421216965E1
1.228508704E1,1.363490200E1,-8.487939835E0,1.081077290E1
1.230432714E1,1.221535969E1,-7.186842918E0,9.033503532E0
1.232356714E1,1.123310566E1,-5.305486202E0,6.957131863E0
1.234280714E1,1.059781170E1,-2.808575630E0,4.203591347E0
1.236204714E1,9.268000603E0,-1.055832982E0,1.683350682E0
1.238128714E1,7.960920811E0,-2.955136001E-1,-3.882354796E-1
1.240052714E1,6.953542709E0,7.597211748E-2,-5.527420044E-1
1.241976714E1,7.389634609E0,3.900300860E-1,1.161117196E0
1.243900714E1,8.073383331E0,9.379864931E-1,1.079761267E0
1.245824714E1,7.730611801E0,1.099501967E0,-1.547558069E0
1.247748724E1,6.608377934E0,7.082754970E-1,-3.548556089E0
1.249672724E1,6.288936138E0,1.136590727E-2,-2.324028969E0
1.251596724E1,6.760322094E0,-9.320043921E-1,-8.189435601E-1
1.253520724E1,8.786444664E0,-8.273184299E-1,1.404586911E0
1.255444724E1,1.047159004E1,2.277369022E0,6.735197544E0
1.257368724E1,8.154739380E0,3.251247883E0,1.497548008E1
1.259292724E1,4.950749874E0,-1.188634634E0,2.722493744E1
1.261216724E1,2.606980324E0,-1.813161373E0,3.559742355E1
1.263140724E1,3.501297712E0,4.796412945E0,3.018007469E1
1.265064735E1,4.108476639E0,1.055713367E1,2.250150681E1
1.266988735E1,3.926023722E0,1.190788174E1,1.866042709E1
1.268912735E1,4.459024906E0,1.132283688E1,1.636451340E1
1.270836735E1,3.793222189E0,9.957731247E0,1.304985619E1
1.272760735E1,1.210768223E0,8.393424034E0,9.321838379E0
1.274684735E1,-1.484746456E0,7.355536938E0,6.338587284E0
1.276608735E1,-2.994019270E0,6.979863644E0,4.455435753E0
1.278532735E1,-3.722035646E0,7.147361279E0,3.975674868E0
1.280456735E1,-5.087141037E0,6.663413048E0,3.287140131E0
1.282380745E1,-5.911468506E0,6.375676155E0,2.836691141E0
1.284304745E1,-6.254838467E0,7.361518860E0,4.635495663E0
1.286228745E1,-6.206982136E0,8.508278847E0,8.380861282E0
1.288152745E1,-6.987640381E0,8.693722725E0,1.386162186E1
1.290076745E1,-9.042476654E0,8.578866959E0,2.062194443E1
1.292000745E1,-8.520243645E0,7.439285755E0,2.952085114E1
1.293924745E1,-4.034298897E0,5.698507309E0,3.443271637E1
1.295848745E1,-1.049850941E0,2.810370207E0,3.033082199E1
1.297772756E1,-9.128618240E-1,-1.269990563E0,2.684627342E1
1.299696756E1,-2.074577332E0,-5.432305813E0,2.540399933E1
1.301620756E1,-1.064806104E0,-7.843074322E0,2.218206406E1
1.303544756E1,3.030509949E0,-8.644669533E0,1.793839264E1
1.305468756E1,8.314460754E0,-7.533204079E0,1.201735306E1
1.307392756E1,1.194736385E1,-6.312864304E0,5.898307800E0
1.309316756E1,1.285364532E1,-6.679564476E0,3.266202927E0
1.311240756E1,1.238943768E1,-7.956135273E0,3.087937593E0
1.313164766E1,1.111525917E1,-9.589835167E0,2.303689957E0
1.315088766E1,1.064865875E1,-1.088076305E1,3.290729284E0
1.317012766E1,1.144666576E1,-1.102014446E1,3.247060299E0
1.318936766E1,1.244447231E1,-9.972686768E0,1.221535921E0
1.320860766E1,1.411585903E1,-6.914659023E0,2.931207791E-2
1.322784766E1,1.579621887E1,-3.425325632E0,-1.653440475E0
1.324708766E1,1.685564041E1,3.475574851E-1,-4.082155228E0
1.326632766E1,1.475713539E1,3.873381615E0,-4.104289055E0
1.328556777E1,1.290628719E1,4.263411522E0,9.186644554E0
1.330480777E1,1.055055332E1,1.410568953E0,3.341995621E1
1.332404777E1,8.231309891E0,1.620539188E0,4.999443817E1
1.334328777E1,8.268997192E0,8.535796165E0,3.840958786E1
1.336252777E1,1.161236858E1,1.473141289E1,2.325704002E1
1.338176777E1,1.346680546E1,1.555454350E1,1.609233093E1
1.340100777E1,9.835099220E0,1.113380337E1,1.246182060E1
1.342024787E1,4.353740692E0,6.580860615E0,1.005942631E1
1.343948787E1,-9.601200819E-1,4.116253376E0,7.753942013E0
1.345872787E1,-4.870590687E0,3.250649452E0,5.906084538E0
1.347796787E1,-7.985447407E0,3.535395384E0,4.202992916E0
1.349720787E1,-1.013061333E1,4.056432724E0,4.156332970E0
1.351644787E1,-1.183131123E1,5.193023205E0,5.577669621E0
1.353568787E1,-1.264427280E1,6.277570248E0,6.424728870E0
1.355492787E1,-1.227338600E1,6.135197163E0,7.725227833E0
1.357416798E1,-1.149272728E1,5.645267010E0,7.909475327E0
1.359340798E1,-9.345169067E0,5.433502197E0,8.370093346E0
1.361264798E1,-6.608976364E0,6.882954121E0,9.570094109E0
1.363188798E1,-2.879761934E0,1.081914711E1,1.266760349E1
1.365112798E1,5.051248550E0,1.345005608E1,1.991845322E1
1.367036798E1,1.345962715E1,1.213400364E1,2.740260506E1
1.368960798E1,1.701655769E1,8.527421951E0,2.332044983E1
1.370884808E1,1.549831200E1,6.349354744E0,1.910908127E1
1.372808808E1,1.173141098E1,4.232305050E0,1.468176174E1
1.374732808E1,8.463413239E0,3.363112211E0,1.032742214E1
1.376656808E1,7.756932735E0,3.152543783E0,7.074379921E0
1.378580808E1,7.760521889E0,2.512463808E0,3.795614958E0
1.380504808E1,7.208976269E0,1.458425403E0,3.672982752E-1
1.382428818E1,6.689135551E0,-5.072783828E-1,-2.496312141E0
1.384352818E1,6.839285374E0,-2.959323406E0,-4.144368649E0
1.386276818E1,8.111668587E0,-5.867201328E0,-4.287340164E0
1.388200818E1,9.924830437E0,-9.682557106E0,-3.867399693E0
1.390124818E1,9.806385040E0,-1.273998642E1,-6.857829571E0
1.392048818E1,9.895518303E0,-1.285962677E1,-1.085204887E1
1.393972818E1,8.011170387E0,-1.142512989E1,-1.025922680E1
1.395896829E1,1.024666500E1,-7.395616531E0,-1.007378340E0
1.397820829E1,1.375514126E1,-3.499503136E0,1.248574829E1
1.399744829E1,1.331007576E1,-1.025324464E0,2.203789711E1
1.401668829E1,7.707880020E0,5.362913609E0,1.778585052E1
1.403592829E1,4.261018753E0,9.157930374E0,2.102692986E1
1.405516829E1,1.479362607E0,6.824928284E0,3.411746216E1
1.407440839E1,2.606382132E0,6.026922226E0,3.830729675E1
1.409364839E1,3.128017426E0,9.878767967E0,2.207199478E1
1.411288839E1,6.083751678E0,1.474397469E1,7.657032490E0
1.413212839E1,1.240738392E1,1.619043541E1,6.619145870E0
1.415136839E1,1.651765442E1,1.317189026E1,7.835297585E0
1.417060850E1,1.507238960E1,8.729615211E0,7.127620220E0
1.418984850E1,1.134855938E1,5.977271080E0,5.554339409E0
1.420908850E1,8.664410591E0,5.129015446E0,3.929612875E0
1.422832850E1,6.095117569E0,4.098307133E0,3.053241730E0
1.424756850E1,4.159922123E0,2.950350285E0,2.298306227E0
1.426680850E1,2.302493572E0,1.704287887E0,1.786840320E0
1.428604860E1,-9.708877802E-1,4.600201547E-1,2.015953064E0
1.430528860E1,-6.100501537E0,7.381857634E-1,2.705684185E0
1.432452860E1,-1.167876911E1,2.717648268E0,2.068595171E0
1.434376860E1,-1.541217041E1,4.624129772E0,2.318645239E0
1.436300860E1,-1.655653763E1,5.967101574E0,4.231108665E0
1.438224860E1,-1.716551208E1,9.058030128E0,4.826921463E0
1.440148870E1,-1.238046455E1,1.408774376E1,8.902496338E0
1.442072870E1,-1.392024517E0,1.718884087E1,1.940638924E1
1.443996870E1,4.586442947E0,1.603490257E1,2.125843430E1
1.445920870E1,3.431905985E0,1.167517948E1,1.760997772E1
1.447844870E1,7.070791125E-1,9.086744308E0,1.691187286E1
1.449768881E1,-3.098705411E-1,7.206583500E0,1.545584011E1
1.451692881E1,1.890928149E0,4.485944271E0,1.349372482E1
1.453616881E1,7.701898098E0,1.947159410E0,9.332606316E0
1.455540881E1,1.084307575E1,-2.799602449E-1,3.187239647E0
1.457464881E1,1.170030499E1,-2.812762976E0,-2.157129526E0
1.459388891E1,1.193001556E1,-6.167500496E0,-4.462614059E0
1.461312891E1,1.324307728E1,-9.074779510E0,-2.895315409E0
1.463236891E1,1.516391563E1,-9.695717812E0,-3.200400174E-1
1.465160891E1,1.621316719E1,-9.296115875E0,-1.293320656E0
1.467084891E1,1.583211136E1,-8.444869041E0,-5.562714577E0
1.469008902E1,1.448016644E1,-8.554341316E0,-7.396214962E0
1.470932902E1,1.246002579E1,-8.578269005E0,-2.019542217E0
1.472856902E1,1.350927830E1,-6.875177860E0,6.439683914E0
1.474780902E1,1.529432392E1,-2.146361828E0,1.333878994E1
1.476704902E1,1.665344810E1,-9.517452121E-1,2.456232452E1
1.478628912E1,1.966660881E1,-2.757728100E-1,4.140361023E1
1.480552912E1,2.077987099E1,3.363710403E0,4.884827805E1
1.482476912E1,1.513879108E1,8.312665939E0,3.796632004E1
1.484400912E1,6.455835342E0,1.370788288E1,2.054058838E1
1.486324922E1,1.822134495E0,1.596551132E1,1.370249844E1
1.488248922E1,-1.266999602E0,1.383889008E1,1.443350601E1
1.490172922E1,-4.433900356E0,1.193360519E1,1.311386490E1
1.492096922E1,-6.867401123E0,1.106201935E1,1.024008465E1
1.494020922E1,-9.248857498E0,1.076710415E1,6.655636311E0
1.495944933E1,-1.153280735E1,1.127198887E1,5.978467464E0
1.497868933E1,-1.256172085E1,1.189232826E1,7.669594765E0
1.499792933E1,-1.313958740E1,1.058883858E1,8.557332039E0
1.501716933E1,-1.267358494E1,7.989036560E0,8.988637924E0
1.503640933E1,-1.161356449E1,6.087340832E0,1.215613747E1
1.505564943E1,-7.996813297E0,4.446462631E0,2.025045776E1
1.507488943E1,-1.846660852E0,4.797011375E0,2.868994331E1
1.509412943E1,7.784450054E0,6.916453838E0,3.451347733E1
1.511336943E1,1.751187325E1,7.813164234E0,3.495913696E1
1.513260954E1,2.163470650E1,5.578267574E0,2.177408791E1
1.515184954E1,2.016910172E1,2.839682341E0,1.520279884E1
1.517108954E1,1.438864040E1,1.091127157E0,1.028016472E1
1.519032954E1,1.065344429E1,-4.384847581E-1,6.695117950E0
1.520956954E1,7.660621643E0,-3.367897868E-1,3.163909674E0
1.522880964E1,6.647859573E0,-6.939185411E-2,-1.390828133E0
1.524804964E1,6.926623344E0,-1.130010486E0,-3.452843189E0
1.526728964E1,6.166902065E0,-3.240479946E0,-4.037290096E0
1.528652964E1,4.926821709E0,-6.094519138E0,-3.884149313E0
1.530576975E1,4.024129391E0,-8.563314438E0,-2.502892494E0
1.532500975E1,5.141577721E0,-9.376873970E0,-7.459624410E-1
1.534424974E1,7.321439266E0,-9.107083321E0,-5.318048596E-1
1.536348974E1,9.137591362E0,-8.796614647E0,-1.439880967E0
1.538272985E1,9.895518303E0,-7.368697166E0,-3.148954630E0
1.540196985E1,1.068754196E1,-5.117051125E0,-2.948555708E0
1.542120985E1,1.198445225E1,-2.586641312E0,9.517452121E-1
1.544044985E1,1.463211060E1,1.010369420E0,6.277570248E0
1.545968985E1,1.717568016E1,6.177670002E0,1.221356487E1
1.547892995E1,2.282094765E1,9.314660072E0,2.456651115E1
1.549816995E1,2.599801826E1,1.149033451E1,3.643192291E1
1.551740995E1,2.332583427E1,1.382154179E1,3.612145233E1
1.553664995E1,1.587398529E1,1.615574074E1,2.312603188E1
1.555589006E1,1.134975624E1,1.638305855E1,1.462194061E1
1.557513006E1,8.103892326E0,1.361396408E1,1.255274773E1
1.559437006E1,3.914059639E0,9.927821159E0,1.061097240E1
1.561361006E1,5.611169338E-1,7.156334400E0,8.520243645E0
1.563285016E1,-2.592025042E0,5.786443233E0,6.934400082E0
1.565209016E1,-5.678168297E0,5.266602516E0,5.240880013E0
1.567133016E1,-7.941778183E0,5.678766251E0,5.066802025E0
1.569057016E1,-8.758329391E0,6.598806858E0,6.142375946E0
1.570981027E1,-9.466604233E0,7.185048103E0,6.413362980E0
1.572905027E1,-1.095135117E1,8.192426682E0,5.700900078E0
1.574829027E1,-1.179482079E1,9.186644554E0,4.960919380E0
1.576753027E1,-1.170449162E1,9.139386177E0,5.611767292E0
1.578677037E1,-1.009531879E1,8.313861847E0,7.821538925E0
1.580601037E1,-9.451051712E0,8.658429146E0,1.110329533E1
1.582525037E1,-7.898109436E0,1.276152134E1,1.456630802E1
1.584449037E1,4.216153622E0,1.671625900E1,2.349033928E1
1.586373037E1,1.809930992E1,1.556232071E1,2.676910591E1
1.588297048E1,2.391566467E1,1.147717381E1,1.867358780E1
1.590221048E1,2.447020149E1,9.585647583E0,1.372582912E1
1.592145048E1,2.307219505E1,7.281957626E0,1.187797165E1
1.594069048E1,1.762074661E1,2.547159672E0,1.006062317E1
1.595993058E1,1.085384369E1,-1.105484009E0,6.946962357E0
1.597917058E1,7.921439171E0,-3.189632654E0,4.475774765E0
1.599841058E1,7.791030407E0,-4.962714195E0,3.175873756E0
1.601765058E1,8.352746010E0,-6.787241459E0,1.183848977E0
1.603689058E1,9.715457916E0,-8.454441071E0,-1.073180914E0
1.605613068E1,1.149811077E1,-1.026401234E1,-2.622533560E0
1.607537068E1,1.192881870E1,-1.188275719E1,-4.823930264E0
1.609461068E1,1.151545906E1,-1.128873920E1,-9.114859581E0
1.611385068E1,1.053739262E1,-8.524430275E0,-1.377189064E1
1.613309079E1,1.161715412E1,-5.510072231E0,-1.726002884E1
1.615233079E1,1.332682610E1,-1.480558991E0,-2.065125656E1
1.617157079E1,1.809272957E1,-1.866401672E0,-1.008335495E1
1.619081079E1,2.081516457E1,-6.671189308E0,1.220339584E1
1.621005089E1,2.467837715E1,-5.991627693E0,4.533860397E1
1.622929089E1,2.355315208E1,3.501895905E0,5.132724380E1
1.624853089E1,1.978983879E1,1.207956696E1,2.990370369E1
1.626777089E1,1.930768585E1,1.622453308E1,1.494317722E1
1.628701089E1,1.810110474E1,1.463689613E1,9.940383911E0
1.630625100E1,1.246182060E1,1.011505985E1,9.156135559E0
1.632549100E1,4.779065132E0,6.104090691E0,9.735796928E0
1.634473100E1,-1.927418590E0,4.420739651E0,9.336793900E0
1.636397100E1,-4.974678040E0,4.437489510E0,8.289336205E0
1.638321100E1,-5.523830891E0,4.875376225E0,7.725826263E0
1.640245110E1,-6.439683914E0,5.122435093E0,6.518048763E0
1.642169110E1,-7.302894592E0,6.090332031E0,4.232903481E0
1.644093110E1,-7.710272789E0,7.019943237E0,3.507279873E0
1.646017110E1,-7.728219032E0,6.251847267E0,6.281757832E0
1.647941120E1,-6.603592396E0,4.130012035E0,1.029811001E1
1.649865120E1,-6.437889099E0,5.127220631E0,9.730413437E0
1.651789120E1,-7.107281685E0,7.048657417E0,4.390829563E0
1.653713120E1,-3.218346536E-1,8.903095245E0,1.458425403E0
1.655637120E1,1.066241741E1,1.258564854E1,5.481956482E0
1.657561131E1,1.712244034E1,1.121396351E1,8.126026154E0
1.659485131E1,1.756750488E1,7.512865067E0,1.307438278E1
1.661409131E1,1.732104492E1,5.176871777E0,1.466919899E1
1.663333131E1,1.606421471E1,5.100899696E0,1.181934738E1
1.665257131E1,1.312523079E1,4.476373196E0,8.800801277E0
1.667181141E1,1.133779144E1,3.250051260E0,6.500102520E0
1.669105141E1,9.915258408E0,1.582253933E0,3.973880291E0
1.671029141E1,8.218149185E0,1.710868180E-1,1.188634634E0
1.672953141E1,8.487939835E0,-1.719243050E0,-1.644467354E0
1.674877141E1,8.455636978E0,-3.504288673E0,-1.508076429E0
1.676801152E1,7.731808186E0,-6.471388817E0,1.073779106E0
1.678725152E1,9.165108681E0,-9.655637741E0,-2.679961324E-1
1.680649152E1,1.026401234E1,-1.025743294E1,-3.607778311E0
1.682573152E1,1.134197903E1,-9.851250648E0,-5.676971912E0
1.684497152E1,1.079880905E1,-1.088614655E1,-4.022335052E0
1.686421162E1,1.078385353E1,-1.229851055E1,6.604190469E-1
1.688345162E1,1.176491070E1,-1.221177006E1,4.789234638E0
1.690269162E1,1.273519993E1,-8.861220360E0,6.607779503E0
1.692193162E1,1.560718536E1,-7.570292473E0,1.466740417E1
1.694117162E1,2.006501389E1,-7.645068169E0,2.843570518E1
1.696041162E1,2.158086777E1,-3.730410576E0,3.262493896E1
1.697965172E1,2.013141441E1,1.100100160E0,2.629233551E1
1.699889172E1,1.949432564E1,1.205384374E0,2.687498665E1
1.701813172E1,1.837568092E1,-1.774876237E0,3.197768211E1
1.703737172E1,1.554975796E1,-3.283550978E0,3.312563705E1
1.705661172E1,1.141316605E1,-2.148754835E0,2.852902603E1
1.707585183E1,6.437291145E0,-6.317051649E-1,2.244946289E1
1.709509183E1,2.657229662E0,3.463610709E-1,1.769611931E1
1.711433183E1,5.539384484E-1,9.541380405E-1,1.400638771E1
1.713357183E1,-4.552344978E-1,1.572084427E0,1.085803127E1
1.715281183E1,-1.266999602E0,2.480160713E0,7.031309128E0
1.717205183E1,-2.419143677E0,3.373879910E0,3.787838221E0
1.719129183E1,-3.527020693E0,3.800400496E0,2.319243431E0
1.721053193E1,-4.326821327E0,4.800002098E0,2.439482689E0
1.722977193E1,-4.073780537E0,6.458228111E0,3.760919094E0
1.724901193E1,-3.223730326E0,9.332008362E0,5.106881618E0
1.726825193E1,-3.029313564E0,1.189113235E1,4.901697159E0
1.728749193E1,-3.279961586E0,1.216810131E1,5.955137253E0
1.730673193E1,-4.514657974E0,1.091486073E1,1.150050354E1
1.732597193E1,-4.867001057E0,9.717252731E0,1.893380737E1
1.734521204E1,-3.477369547E0,9.966106415E0,2.216651154E1
1.736445204E1,5.084748268E-1,9.209974289E0,2.337309074E1
1.738369204E1,6.275177479E0,7.074978352E0,2.501516533E1
1.740293204E1,8.720044136E0,5.976672649E0,1.864128494E1
1.742217204E1,9.245866776E0,4.024727821E0,1.013838959E1
1.744141204E1,8.292924881E0,2.204986095E0,5.474778175E0
1.746065204E1,7.468597889E0,5.000999570E-1,-1.130608693E-1
1.747989214E1,7.883752346E0,-3.469592929E-1,-5.344369411E0
1.749913214E1,7.996813297E0,-7.615157962E-1,-9.232706070E0
1.751837214E1,9.056235313E0,-3.029313564E0,-8.970093727E0
1.753761214E1,9.649057388E0,-5.441876888E0,-6.909873486E0
1.755685214E1,1.103031445E1,-7.062416077E0,-5.619544029E0
1.757609214E1,1.388076401E1,-7.459026337E0,-4.504488468E0
1.759533214E1,1.659063530E1,-6.906284332E0,-2.836691141E0
1.761457214E1,1.722892189E1,-7.194021225E0,-2.512463629E-1
1.763381224E1,1.743290901E1,-7.543971539E0,3.382254839E0
1.765305224E1,1.816930008E1,-5.341378212E0,6.356533527E0
1.767229224E1,2.031267166E1,-2.383849621E0,9.634700775E0
1.769153224E1,2.232802582E1,3.445664644E-1,1.342732430E1
1.771077224E1,2.581197548E1,6.119644046E-1,2.317209435E1
1.773001224E1,2.579821777E1,1.593021631E0,3.011666489E1
1.774925224E1,2.173161507E1,3.674179077E0,3.018067169E1
1.776849224E1,1.506162167E1,5.447260857E0,2.547757912E1
1.778773224E1,7.359126091E0,7.112067223E0,2.158206367E1
1.780697224E1,3.430709362E0,9.156734467E0,1.797069550E1
1.782621235E1,3.170490026E0,1.109970570E1,1.520519161E1
1.784545235E1,2.012962103E0,1.214237881E1,1.223689461E1
1.786469235E1,-9.104689956E-1,1.233619690E1,9.454640388E0
1.788393235E1,-3.714857101E0,1.109133148E1,8.882756233E0
1.790317235E1,-6.074778557E0,9.343374252E0,1.008215809E1
1.792241235E1,-7.889734268E0,9.467801094E0,9.905089378E0
1.794165235E1,-8.787641525E0,1.027896786E1,8.543573380E0
1.796089235E1,-9.155537605E0,1.031306553E1,7.019345284E0
1.798013235E1,-9.347561836E0,8.623134613E0,7.778468132E0
1.799937235E1,-8.523234367E0,6.083153248E0,1.141735363E1
1.801861235E1,-4.266402721E0,5.778666496E0,1.651107407E1
1.803785235E1,5.181059361E0,7.785048485E0,2.264028931E1
1.805709245E1,1.486062527E1,1.020598698E1,2.684328270E1
1.807633245E1,2.231546402E1,1.274237919E1,2.617987251E1
1.809557245E1,2.769393158E1,1.492164230E1,2.263909340E1
1.811481245E1,2.620918465E1,1.138504982E1,1.238225937E1
1.813405245E1,2.016252136E1,6.920042992E0,7.245467186E0
1.815329245E1,1.638844299E1,4.006781578E0,4.987240791E0
1.817253245E1,1.344168091E1,2.489732027E0,2.073979139E0
1.819177245E1,9.503693581E0,1.144367456E0,-2.825923443E0
1.821101245E1,6.860222340E0,-8.799605370E-1,-4.433900356E0
1.823025245E1,6.754340172E0,-4.027718544E0,-3.555136204E0
1.824949245E1,5.671587944E0,-7.531409264E0,-4.116851330E0
1.826873245E1,3.772284985E0,-1.033699417E1,-4.904089928E0
1.828797245E1,3.605983734E0,-1.160160065E1,-4.710271358E0
1.830721245E1,5.045864582E0,-1.159860992E1,-4.119842529E0
1.832645245E1,6.360122681E0,-1.057627583E1,-3.960121393E0
1.834569245E1,7.359126091E0,-9.077771187E0,-6.038886070E0
1.836493245E1,9.147761345E0,-6.489335060E0,-7.387241840E0
1.838417245E1,1.365583897E1,-3.601198196E0,-2.559721947E0
1.840341245E1,1.891167450E1,-1.381855011E-1,6.131010056E0
1.842265245E1,2.497508621E1,4.994419098E0,1.496112347E1
1.844189245E1,3.283850098E1,1.151665497E1,2.354896355E1
1.846113245E1,3.539163971E1,1.656790352E1,2.657229614E1
1.848037256E1,2.886701202E1,1.866940117E1,2.125005913E1
1.849961256E1,1.936331940E1,1.930110550E1,1.131027412E1
1.851885256E1,1.361157131E1,1.760698700E1,8.212765694E0
1.853809256E1,9.027522087E0,1.443410397E1,1.013838959E1
1.855733256E1,4.236492634E0,1.119601727E1,1.001276588E1
1.857657256E1,3.266202807E-1,9.071788788E0,9.500103951E0
1.859581256E1,-3.430709362E0,8.166703224E0,8.516654015E0
1.861505256E1,-6.394220352E0,7.896314621E0,7.561319351E0
1.863429256E1,-7.975277901E0,8.047062874E0,8.660821915E0
1.865353245E1,-8.943174362E0,8.009375572E0,9.866804123E0
1.867277256E1,-8.882157326E0,7.362117290E0,9.785448074E0
1.869201256E1,-7.642675400E0,6.051448345E0,8.982057571E0
1.871125256E1,-5.891727448E0,5.095515728E0,8.274978638E0
1.873049245E1,-3.034697294E0,4.637290478E0,9.218349457E0
1.874973245E1,-2.592623234E0,7.548159122E0,1.125105190E1
1.876897256E1,1.966302037E0,1.370848083E1,1.341177082E1
1.878821245E1,1.489173126E1,1.860240173E1,2.090310097E1
1.880745245E1,2.562234497E1,1.648535156E1,1.928973961E1
1.882669245E1,2.730808830E1,1.295414352E1,1.416730499E1
1.884593245E1,2.682414055E1,1.008215809E1,1.152802086E1
1.886517245E1,2.241835594E1,6.457031727E0,7.581060410E0
1.888441245E1,1.509213066E1,2.752344131E0,3.021536827E0
1.890365245E1,9.156135559E0,5.234299302E-1,4.719842672E-1
1.892289245E1,7.272386074E0,-1.235294700E0,6.131607890E-1
1.894213245E1,6.967899323E0,-3.136392355E0,1.579262912E-1
1.896137245E1,6.229115486E0,-4.895116806E0,-2.212164640E0
1.898061245E1,5.376074314E0,-6.460621357E0,-4.316651821E0
1.899985245E1,5.951548100E0,-8.359924316E0,-3.572484255E0
1.901909245E1,7.064808846E0,-1.041476059E1,-2.260020971E0
1.903833245E1,7.675576687E0,-1.116371441E1,-4.712066174E0
1.905757245E1,7.118049145E0,-1.006122112E1,-9.046664238E0
1.907681245E1,6.708278179E0,-8.232506752E0,-1.156391335E1
1.909605245E1,6.523432732E0,-5.481358528E0,-1.382632732E1
1.911529245E1,9.022137642E0,-2.467000246E0,-1.029511929E1
1.913453245E1,1.672283936E1,-1.945364833E0,8.161917686E0
1.915377245E1,2.416990089E1,-1.215553880E0,3.089792061E1
1.917301245E1,2.933720207E1,5.206781864E0,4.240560150E1
1.919225235E1,2.639881516E1,1.307139206E1,2.573361206E1
1.921149235E1,2.138345909E1,1.665763474E1,1.204666519E1
1.923073235E1,1.816690826E1,1.577827263E1,9.661619186E0
1.924997235E1,1.417388535E1,1.273400402E1,9.078369141E0
1.926921235E1,1.029093170E1,9.996016502E0,7.301100254E0
1.928845235E1,6.396014690E0,7.892127514E0,5.315655708E0
1.930769235E1,3.194418192E0,6.553342819E0,4.334000111E0
1.932693235E1,1.206580877E0,6.013761520E0,4.625326157E0
1.934617235E1,-4.552344978E-1,5.630909920E0,5.603990555E0
1.936541235E1,-2.930011272E0,6.304489613E0,6.476772785E0
1.938465235E1,-4.472185612E0,7.288537979E0,7.147959232E0
1.940389224E1,-4.313661098E0,8.102695465E0,9.298508644E0
1.942313224E1,-3.204587698E0,8.673383713E0,1.135035419E1
1.944237224E1,-2.246860504E0,1.026281643E1,1.012941647E1
1.946161224E1,-2.598605394E0,1.363729477E1,7.216155052E0
1.948085224E1,1.191625714E0,1.576690674E1,6.532405853E0
1.950009224E1,6.414559364E0,1.633580017E1,8.127222061E0
1.951933224E1,9.044271469E0,1.437129307E1,8.845068932E0
1.953857224E1,1.098784161E1,1.022572803E1,8.374280930E0
1.955781214E1,1.351585865E1,6.006583214E0,9.053842545E0
1.957705214E1,1.570529175E1,1.332802176E0,8.389236450E0
1.959629214E1,1.563649750E1,-3.217748165E0,8.717052460E0
1.961553214E1,1.595055580E1,-6.762116909E0,8.601598740E0
1.963477214E1,1.661396599E1,-8.378468513E0,5.200799942E0
1.965401214E1,1.629452324E1,-8.569295883E0,-1.349551916E0
1.967325214E1,1.541456318E1,-7.953144073E0,-9.297312737E0
1.969249204E1,1.488993740E1,-7.111468792E0,-1.437966728E1
1.971173204E1,1.524407482E1,-6.802794933E0,-1.252582836E1
1.973097204E1,1.562273884E1,-7.435098171E0,-9.766903877E0
1.975021204E1,1.318744373E1,-8.778668404E0,-9.370293617E0
1.976945204E1,1.089272690E1,-1.045842934E1,-5.772086620E0
1.978869204E1,1.167577839E1,-1.125942707E1,1.403988719E0
1.980793204E1,1.418285847E1,-8.857032776E0,6.762116909E0
1.982717193E1,1.767458534E1,-5.383252621E0,1.537508202E1
1.984641193E1,2.064886284E1,-2.626122952E0,2.419383049E1
1.986565193E1,2.245065880E1,2.371287346E0,3.415455246E1
1.988489193E1,1.987179375E1,8.798408508E0,3.500579834E1
1.990413193E1,1.109133148E1,1.281057453E1,2.219522476E1
1.992337193E1,8.120641708E0,1.535474300E1,1.378146172E1
1.994261183E1,8.393424034E0,1.573579979E1,1.196112251E1
1.996185183E1,8.246863365E0,1.471047497E1,1.064865875E1
1.998109183E1,6.889534473E0,1.393220997E1,8.337192535E0
2.000033183E1,3.720839262E0,1.291825104E1,7.075576782E0
2.001957183E1,-5.300102234E-1,1.237747288E1,6.498906136E0
2.003881173E1,-3.988835335E0,1.277886963E1,6.089733601E0
2.005805173E1,-5.486144066E0,1.432642746E1,5.930611134E0
2.007729173E1,-5.544169903E0,1.638186264E1,6.610770702E0
2.009653173E1,-5.092525005E0,1.652423477E1,5.808577061E0
2.011577173E1,-5.003990173E0,1.471944809E1,6.597609997E0
2.013501162E1,-3.321237803E0,1.204546928E1,1.043270683E1
2.015425162E1,3.714857101E-1,9.689735413E0,1.664566994E1
2.017349162E1,4.940580368E0,1.021256733E1,1.944587135E1
2.019273162E1,1.036929703E1,1.248933792E1,1.870828438E1
2.021197162E1,1.567897034E1,1.407518101E1,2.027259254E1
2.023121152E1,2.010569191E1,1.148435211E1,1.586561012E1
2.025045152E1,2.024208260E1,6.576074600E0,1.215613747E1
2.026969152E1,1.641954803E1,2.505285263E0,8.748757362E0
2.028893152E1,1.234995556E1,-8.045865893E-1,4.198207378E0
2.030817141E1,8.081160545E0,-1.968694806E0,-1.022931710E-1
2.032741141E1,5.776273727E0,-1.906481385E0,-3.341576815E0
2.034665141E1,6.396613121E0,-3.459423304E0,-3.749552965E0
2.036589141E1,6.349354744E0,-5.765506268E0,-3.436691523E0
2.038513131E1,5.575874805E0,-7.319644451E0,-4.935794830E0
2.040437131E1,4.553541660E0,-8.227720261E0,-6.078966141E0
2.042361131E1,3.646661758E0,-8.971888542E0,-5.167300701E0
2.044285131E1,4.955535889E0,-8.800801277E0,-5.449055195E0
2.046209120E1,7.770691395E0,-7.153941631E0,-6.469594002E0
2.048133120E1,9.038887978E0,-6.367899418E0,-7.686942577E0
2.050057120E1,1.050628567E1,-6.033502102E0,-5.959324837E0
2.051981120E1,1.400459290E1,-4.137788773E0,-2.301297188E0
2.053905110E1,1.726301956E1,-1.527219057E0,2.091925144E0
2.055829110E1,2.433859634E1,8.673982322E-2,1.458545017E1
2.057753110E1,2.898186874E1,3.262015581E0,2.569831657E1
2.059677110E1,2.916910553E1,7.569694519E0,2.983849907E1
2.061601100E1,2.493919373E1,1.078325558E1,2.537827682E1
2.063525100E1,1.734856224E1,1.233978653E1,1.763988876E1
2.065449100E1,1.285424328E1,1.248694515E1,1.423191071E1
2.067373089E1,1.015992451E1,1.145324516E1,1.373480225E1
2.069297089E1,7.545766354E0,1.002114105E1,1.179661560E1
2.071221089E1,4.753342152E0,9.005388260E0,8.657830238E0
2.073145089E1,2.900100946E0,8.810971260E0,5.922235966E0
2.075069079E1,1.351944804E0,8.987442017E0,4.945964336E0
2.076993079E1,-7.399803996E-1,9.055039406E0,5.608178139E0
2.078917079E1,-4.019941807E0,1.039202881E1,7.315456867E0
2.080841068E1,-6.307480335E0,1.255932808E1,8.478966713E0
2.082765068E1,-7.831110477E0,1.273041439E1,9.957731247E0
2.084689068E1,-9.141778946E0,1.043749237E1,1.190010548E1
2.086613058E1,-7.497909546E0,7.250850677E0,1.394297791E1
2.088537058E1,-4.936393261E0,5.578267574E0,1.429232979E1
2.090461058E1,-3.628117323E0,9.659825325E0,1.169551849E1
2.092385048E1,4.727619171E0,1.563530159E1,1.635494232E1
2.094309048E1,1.704108429E1,1.556351662E1,2.314278221E1
2.096233048E1,2.262413788E1,1.014257717E1,1.877528381E1
2.098157037E1,2.380380058E1,7.304090977E0,1.575135326E1
2.100081037E1,2.257089806E1,5.315057278E0,1.216092300E1
2.102005037E1,1.809153366E1,2.461018085E0,7.760521889E0
2.103929027E1,1.293081379E1,8.135596663E-2,5.455037594E0
2.105853027E1,1.002293587E1,-2.179861546E0,4.928616524E0
2.107777027E1,8.925228119E0,-4.998606682E0,4.176073551E0
2.109701016E1,7.960920811E0,-7.063612461E0,8.309076428E-1
2.111625016E1,7.631907940E0,-7.579864025E0,-3.602992773E0
2.113549016E1,7.459624767E0,-7.939385414E0,-5.863611698E0
2.115473006E1,7.878966808E0,-8.201399803E0,-7.013363361E0
2.117397006E1,8.472985268E0,-7.420741081E0,-9.710074425E0
2.119320995E1,7.932805061E0,-6.078367710E0,-1.224227905E1
2.121244995E1,6.072983742E0,-5.542973518E0,-1.230867958E1
2.123168995E1,4.276572227E0,-5.158925533E0,-1.330648708E1
2.125092985E1,3.453441381E0,-2.194218397E0,-1.427976704E1
2.127016985E1,3.466601849E0,-6.275177598E-1,-5.057828903E0
2.128940985E1,7.520641804E0,-7.555337548E-1,1.203230858E1
2.130864974E1,1.674856186E1,3.619144201E0,3.540839005E1
2.132788974E1,1.992922211E1,1.180618668E1,3.099542809E1
2.134712964E1,1.932742691E1,1.766082573E1,1.759143448E1
2.136636964E1,1.925803566E1,1.818126488E1,1.292243862E1
2.138560964E1,1.271845055E1,1.374437332E1,1.635135269E1
2.140484954E1,5.653641701E0,1.090110207E1,1.705962944E1
2.142408954E1,2.723032236E0,1.130548859E1,1.394058514E1
2.144332943E1,2.572284266E-2,1.164526939E1,1.078445148E1
2.146256943E1,-2.708076954E0,1.097647572E1,9.467801094E0
2.148180943E1,-4.430909157E0,9.312865257E0,1.059541893E1
2.150104933E1,-5.413163185E0,7.418946743E0,1.142692471E1
2.152028933E1,-5.974878311E0,5.676373482E0,1.031785107E1
2.153952923E1,-5.763711452E0,3.651447296E0,8.629117012E0
2.155876923E1,-4.772484779E0,1.741376638E0,6.811768055E0
2.157800923E1,-3.995415688E0,8.626125455E-1,6.056233883E0
2.159724912E1,-4.163511276E0,1.914258122E0,7.761120319E0
2.161648912E1,-3.639483213E0,6.002993584E0,1.450887966E1
2.163572902E1,2.684746981E0,9.706484795E0,2.564388084E1
2.165496902E1,1.358525085E1,9.374481201E0,3.486581802E1
2.167420891E1,2.188296127E1,7.307680130E0,3.593720627E1
2.169344891E1,2.361237335E1,4.618745804E0,2.972005272E1
2.171268891E1,1.818186378E1,-5.623133183E-1,2.416332054E1
2.173192881E1,1.096510983E1,-5.700900078E0,2.055075645E1
2.175116881E1,9.494122505E0,-8.343772888E0,1.803829384E1
2.177040870E1,1.266879940E1,-8.170292854E0,1.340698528E1
2.178964870E1,1.538465309E1,-7.427321434E0,4.092324734E0
2.180888860E1,1.346022511E1,-5.785845280E0,-8.527421951E0
2.182812860E1,8.039285660E0,-5.096114159E0,-1.421875000E1
2.184736850E1,5.622535229E0,-6.279963017E0,-1.195992565E1
2.186660850E1,4.408775806E0,-7.084549427E0,-6.810571671E0
2.188584839E1,5.285745144E0,-6.336194515E0,-4.527818680E0
2.190508839E1,7.424928665E0,-4.896313190E0,-4.967499733E0
2.192432829E1,9.219545364E0,-4.601995945E0,-5.081757069E0
2.194356829E1,1.075992489E1,-4.123431683E0,-8.991031051E-1
2.196280818E1,1.235234833E1,-2.076970100E0,2.972483873E0
2.198204818E1,1.406022549E1,1.056431174E0,7.121638298E0
2.200128818E1,1.652543068E1,3.859622955E0,1.490130329E1
2.202052808E1,2.040299988E1,6.350551128E0,2.386780739E1
2.203976808E1,2.175195503E1,9.110671997E0,2.620439911E1
2.205900798E1,1.928495407E1,1.079162979E1,2.038086700E1
2.207824787E1,1.488515186E1,1.063789082E1,1.245942783E1
2.209748787E1,1.153639603E1,1.066780186E1,7.629515171E0
2.211672777E1,9.751948357E0,1.003430176E1,5.781059742E0
2.213596777E1,7.755736351E0,8.673981667E0,4.883152962E0
2.215520766E1,6.923632145E0,8.203194618E0,3.836292982E0
2.217444766E1,7.548757076E0,8.404789925E0,2.937788010E0
2.219368756E1,6.682555676E0,8.488538742E0,1.144965649E0
2.221292756E1,4.499104977E0,8.718249321E0,7.674978375E-1
2.223216745E1,1.573879123E0,1.073180962E1,1.605584025E0
2.225140745E1,6.699903607E-1,1.285424328E1,3.905684710E0
2.227064735E1,7.591229677E-1,1.315573883E1,7.989634991E0
2.228988735E1,1.597209126E-1,1.102552891E1,1.112423229E1
2.230912725E1,-9.738788009E-1,9.248857498E0,1.412004662E1
2.232836725E1,-1.069591761E0,1.049312592E1,2.026182365E1
2.234760714E1,2.599801779E0,1.239781189E1,2.913740158E1
2.236684714E1,1.296371460E1,1.115055370E1,3.607359695E1
2.238608704E1,2.271267319E1,6.607779503E0,3.206262589E1
2.240532704E1,2.519941330E1,2.615355253E0,2.402812767E1
2.242456693E1,2.340659142E1,7.806583643E-1,1.867478371E1
2.244380683E1,2.021336937E1,-8.662018180E-1,1.404646683E1
2.246304683E1,1.641895103E1,-2.900699139E0,1.126122189E1
2.248228672E1,1.298824120E1,-5.749952793E0,9.438488960E0
2.250152672E1,1.019880867E1,-8.397012711E0,7.038487911E0
2.252076662E1,8.746364594E0,-1.030050373E1,3.385843992E0
2.254000662E1,7.924430370E0,-1.163210869E1,-2.697907388E-1
2.255924652E1,6.059225082E0,-1.191386414E1,-2.588435888E0
2.257848641E1,4.956732273E0,-1.203111267E1,-4.257429600E0
2.259772641E1,4.576871395E0,-1.138026428E1,-5.463412285E0
2.261696631E1,5.079962254E0,-1.067079258E1,-6.479165554E0
2.263620631E1,6.325426579E0,-9.761520386E0,-8.045268059E0
2.265544620E1,7.880163193E0,-8.879166603E0,-9.251849174E0
2.267468610E1,1.033160973E1,-7.759923935E0,-7.877171993E0
2.269392610E1,1.273819160E1,-6.424728870E0,-4.642673969E0
2.271316600E1,1.601037598E1,-2.811566591E0,-1.281356573E0
2.273240600E1,2.334976196E1,6.508477330E-1,1.099023438E1
2.275164589E1,2.999941635E1,4.308875561E0,2.387618256E1
2.277088579E1,3.217329407E1,9.165108681E0,2.681456947E1
2.279012579E1,3.004069138E1,1.455254936E1,1.588295841E1
2.280936568E1,2.314996147E1,1.713619995E1,6.181857109E0
2.282860558E1,1.813221169E1,1.584347725E1,5.178666592E0
2.284784558E1,1.369651699E1,1.308634663E1,7.575676441E0
2.286708548E1,8.432307243E0,1.043689442E1,7.641479015E0
2.288632548E1,3.139383316E0,8.884550095E0,6.227919102E0
2.290556537E1,-9.726824164E-1,8.467600822E0,5.113461971E0
2.292480527E1,-3.565903902E0,9.114261627E0,5.117649555E0
2.294404527E1,-4.762315273E0,1.021735287E1,5.900102615E0
2.296328516E1,-4.819743156E0,1.030469036E1,7.697710514E0
2.298252506E1,-4.698905468E0,8.595019341E0,8.909674644E0
2.300176506E1,-4.635495663E0,6.540182590E0,8.394021988E0
2.302100495E1,-4.547559261E0,5.744568825E0,8.202595711E0
2.304024485E1,-3.663411379E0,5.974279881E0,1.034716320E1
2.305948485E1,-1.621137381E0,8.303692818E0,1.384128284E1
2.307872475E1,6.876374245E0,1.103509998E1,2.053400803E1
2.309796464E1,1.863051796E1,1.133719349E1,2.148156548E1
2.311720464E1,2.392523575E1,9.537193298E0,1.397767353E1
2.313644454E1,2.523530579E1,7.372286797E0,1.059482002E1
2.315568443E1,2.341855431E1,4.761118889E0,8.391031265E0
2.317492443E1,1.868136406E1,1.960918188E0,5.573482037E0
2.319416433E1,1.403031540E1,-4.486542344E-1,3.556332588E0
2.321340422E1,1.152443218E1,-2.593221426E0,2.559123755E0
2.323264422E1,1.083470058E1,-5.068596363E0,1.433300734E0
2.325188412E1,9.679565430E0,-7.411170006E0,-9.038887620E-1
2.327112402E1,8.140980721E0,-8.910273552E0,-4.067798615E0
2.329036402E1,7.141977310E0,-1.002772141E1,-6.197410583E0
2.330960391E1,7.158128738E0,-1.097886848E1,-6.865008354E0
2.332884381E1,6.971488953E0,-1.164526939E1,-7.162914753E0
2.334808370E1,6.023931026E0,-1.063370419E1,-1.010488987E1
2.336732370E1,5.090730190E0,-7.418946743E0,-1.218066406E1
2.338656360E1,6.990631580E0,-3.808775425E0,-9.214759827E0
2.340580350E1,1.043689442E1,-6.448656917E-1,-6.239284873E-1
2.342504350E1,1.024307537E1,4.595416069E0,-3.936193287E-1
2.344428339E1,1.389871025E1,9.392427444E0,1.121037364E0
2.346352329E1,2.121596146E1,1.123430252E1,1.308814144E1
2.348276318E1,2.574916458E1,1.056371403E1,2.506720924E1
2.350200318E1,2.157189369E1,1.344168091E1,2.369612312E1
2.352124308E1,1.364686584E1,1.470688629E1,1.349731445E1
2.354048298E1,8.253443718E0,1.375932884E1,8.124231339E0
2.355972287E1,5.074578762E0,1.134616661E1,6.665207386E0
2.357896287E1,3.419343472E0,8.271389961E0,5.509474277E0
2.359820277E1,2.450250387E0,6.143572330E0,4.236492634E0
2.361744266E1,1.541576028E0,4.974080086E0,2.029711723E0
2.363668266E1,1.438684583E0,4.880760193E0,-5.533402562E-1
2.365592256E1,7.627122402E-1,5.555535793E0,-1.933998942E0
2.367516245E1,1.076770201E-1,7.257431030E0,-2.462214470E0
2.369440235E1,8.931210637E-1,9.232108116E0,-1.150349498E0
2.371364225E1,2.462214470E0,1.113440228E1,7.483552694E-1
2.373288225E1,4.823332310E0,1.349551964E1,2.221137524E0
2.375212214E1,7.280761242E0,1.619940948E1,2.398804665E0
2.377136204E1,5.906084538E0,1.990888214E1,3.037090063E0
2.379060193E1,8.390432358E0,2.312782669E1,6.591628075E0
2.380984193E1,1.565922928E1,2.432184601E1,1.503051567E1
2.382908183E1,2.096710777E1,1.898286057E1,1.605284882E1
2.384832172E1,1.882553291E1,1.081914711E1,1.300499153E1
2.386756162E1,1.244267750E1,5.097908497E0,8.246863365E0
2.388680162E1,8.507082939E0,3.815355778E0,4.439882278E0
2.390604152E1,6.443871498E0,3.401995659E0,1.351944804E0
2.392528141E1,4.562514782E0,2.362314224E0,3.451646566E-1
2.394452131E1,4.712664127E0,6.819544733E-2,5.527420044E-1
2.396376120E1,5.270191669E0,-3.530609846E0,2.201396823E-1
2.398300120E1,5.355735302E0,-6.830312252E0,9.690931439E-2
2.400224110E1,6.148955822E0,-7.293921471E0,1.902294010E-1
2.402148100E1,7.516454220E0,-5.984449387E0,-3.577269912E-1
2.404072089E1,7.719843864E0,-4.179064751E0,-1.465005636E0
2.405996079E1,7.920242786E0,-1.724028707E0,-2.499901533E0
2.407920068E1,8.876773834E0,2.973680258E0,-3.111267567E0
2.409844068E1,1.034058285E1,8.354539871E0,-1.778465390E0
2.411768058E1,8.575876236E0,1.420738411E1,1.523629785E0
2.413692048E1,4.088137627E0,1.838345909E1,-5.204389244E-2
2.415616037E1,5.132604837E-1,1.777448463E1,3.343969584E0
2.417540027E1,1.339980721E0,1.436949825E1,1.153938675E1
2.419464016E1,1.765903115E0,1.018804073E1,2.416272354E1
2.421388016E1,2.512463741E-2,9.177671432E0,2.735714149E1
2.423312006E1,-2.578266382E0,1.021914768E1,1.652004814E1
2.425235995E1,-2.158924341E0,1.105663490E1,6.355337143E0
2.427159985E1,1.417747438E-1,1.043210888E1,2.940778971E0
2.429083975E1,1.053440213E0,8.397012711E0,2.822334290E0
2.431007964E1,9.960124493E-1,6.808776855E0,3.119642496E0
2.432931954E1,9.242277741E-1,6.151348591E0,2.656631231E0
2.434855954E1,-5.730810165E-1,5.887540340E0,1.770688772E0
2.436779943E1,-2.503490686E0,5.959922791E0,2.199602127E0
2.438703933E1,-3.588635683E0,5.955735683E0,3.212364435E0
2.440627923E1,-5.034498692E0,4.507479668E0,4.821537495E0
2.442551912E1,-7.283154011E0,3.638885021E0,4.982454777E0
2.444475902E1,-9.856635094E0,4.807778835E0,3.162115097E0
2.446399891E1,-1.037109184E1,6.173482418E0,4.198207378E0
2.448323881E1,-8.569295883E0,6.913462639E0,9.052646637E0
2.450247881E1,-5.091926575E0,8.459824562E0,7.281957626E0
2.452171870E1,-2.995813847E0,1.150409317E1,7.782057285E0
2.454095860E1,-2.498705149E0,1.251446247E1,9.731011391E0
2.456019850E1,-5.186443329E-1,1.070429230E1,1.078265667E1
2.457943839E1,-1.353141189E0,8.769695282E0,1.004148006E1
2.459867829E1,-1.372283816E0,9.771689415E0,6.258427620E0
2.461791818E1,1.772483349E0,1.047218800E1,8.002795219E0
2.463715808E1,4.241278172E0,8.942576408E0,1.051047325E1
2.465639798E1,4.935196877E0,7.021738052E0,8.971290588E0
2.467563787E1,4.112663746E0,5.499304771E0,5.594419479E0
2.469487777E1,2.506481647E0,4.417748928E0,2.432902336E0
2.471411777E1,2.635095835E0,3.189632654E0,1.756331801E0
2.473335766E1,5.197809219E0,2.078166485E0,4.101896286E0
2.475259756E1,6.589235306E0,9.768698215E-1,6.116652966E0
2.477183745E1,4.938187599E0,1.412363529E0,2.874378204E0
2.479107735E1,4.180859566E0,3.660420418E0,-7.938188910E-1
2.481031724E1,6.352943897E0,6.366703033E0,3.385843933E-1
2.482955714E1,2.885145903E0,9.275776863E0,-5.670989752E-1
2.484879704E1,-1.547558069E0,1.151844978E1,-2.047657967E0
2.486803693E1,-1.714457393E0,1.232842064E1,2.009372711E0
2.488727683E1,7.585247755E-1,1.194377422E1,5.994020939E0
2.490651673E1,2.988635540E0,1.196531010E1,1.451725483E1
2.492575662E1,4.049852371E0,1.327597809E1,1.213759327E1
2.494499652E1,4.803591251E0,1.442513084E1,7.066603661E0
2.496423641E1,4.269991875E0,1.458305740E1,5.860620975E0
2.498347631E1,3.477967739E0,1.318864059E1,5.131408215E0
2.500271620E1,4.324428558E0,1.170808125E1,6.196812630E0
2.502195610E1,3.452843189E0,1.006480980E1,5.417350292E0
2.504119600E1,1.623530149E0,8.854042053E0,3.652045488E0
2.506043589E1,8.596215248E-1,8.031509399E0,3.020340443E0
2.507967579E1,7.830511928E-1,7.034898758E0,3.363112211E0
2.509891568E1,5.545366406E-1,5.423332691E0,5.105087280E0
2.511815558E1,-5.312066078E-1,4.180261135E0,5.118247509E0
2.513739548E1,-1.824527264E0,3.796213150E0,2.391027927E0
2.515663537E1,-1.975275040E0,4.090530396E0,3.212364316E-1
2.517587527E1,-1.482951880E0,3.691527128E0,1.620539188E0
2.519511516E1,-5.497509837E-1,3.336193085E0,5.794219971E0
2.521435506E1,-1.795813441E0,4.337589264E0,7.675576687E0
2.523359495E1,-1.523031592E0,6.911069870E0,3.634099483E0
2.525283485E1,1.033699393E0,9.392427444E0,2.158924341E0
2.527207474E1,8.829515576E-1,1.077547836E1,6.977470875E0
2.529131464E1,-4.695914388E-1,1.055593681E1,1.145384407E1
2.531055454E1,-2.099701881E0,9.763913155E0,1.043450165E1
2.532979443E1,-2.447857618E0,1.182054424E1,9.460023880E0
2.534903433E1,1.152742267E0,1.376231956E1,8.763114929E0
2.536827527E1,2.361716032E0,1.246899891E1,1.126122189E1
2.538751412E1,1.780260086E0,9.567103386E0,1.497966766E1
2.540675402E1,1.908276081E0,8.140980721E0,1.572682667E1
2.542599391E1,2.238485575E0,7.145566463E0,1.270947742E1
2.544523381E1,1.255035520E0,5.365904808E0,9.447462082E0
2.546447370E1,-8.321040869E-1,2.348555326E0,7.595417500E0
2.548371360E1,-3.155534744E0,-1.168295622E0,7.307680130E0
2.550295350E1,-4.303491592E0,-3.976273060E0,7.220342159E0
2.552219339E1,-3.061018467E0,-5.380859852E0,6.262615204E0
2.554143329E1,-1.112662554E0,-5.356931686E0,4.710271358E0
2.556067318E1,1.005583763E0,-5.024329185E0,3.856033802E0
2.557991308E1,2.087139606E0,-4.858626366E0,3.413959742E0
2.559915298E1,4.424927235E0,-3.923630953E0,2.696711063E0
2.561839287E1,7.706085205E0,-2.221137524E0,2.525624275E0
2.563763266E1,9.643074989E0,-1.128814101E0,6.202794552E0
2.565687256E1,9.465408325E0,7.357929647E-2,1.140658569E1
2.567611245E1,1.062114143E1,2.335993052E0,1.389990711E1
2.569535235E1,1.220578861E1,6.446862221E0,1.368634701E1
2.571459225E1,9.984052658E0,8.705088615E0,1.197308636E1
2.573383214E1,9.445069313E0,8.684151649E0,1.552941895E1
2.575307204E1,1.114277649E1,8.411369324E0,1.969113541E1
2.577231193E1,1.307916832E1,7.721040249E0,2.025823402E1
2.579155183E1,1.509392548E1,7.245467186E0,1.827279091E1
2.581079172E1,1.320598793E1,7.611568928E0,1.148614693E1
2.583003162E1,1.064267731E1,9.004191399E0,4.700101852E0
2.584927152E1,7.462017536E0,8.639286041E0,3.197409153E0
2.586851131E1,3.893720627E0,6.858428001E0,5.953940868E0
2.588775120E1,1.499701619E0,4.913661480E0,1.024487019E1
2.590699110E1,-3.457628787E-1,4.054637909E0,1.120977592E1
2.592623100E1,-2.166102648E0,3.795614958E0,1.000080204E1
2.594547089E1,-2.620738983E0,3.914059639E0,8.678768158E0
2.596471079E1,-1.435693622E0,4.451248169E0,9.087940216E0
2.598395068E1,-2.249851465E0,5.355735302E0,8.890532494E0
2.600319048E1,-3.342175007E0,5.896512985E0,7.603792191E0
2.602243037E1,-4.509872437E0,6.243472576E0,8.815756798E0
2.604167027E1,-4.167100430E0,6.609574318E0,1.138923740E1
2.606091016E1,-2.590230465E0,6.153741837E0,1.436531067E1
2.608015006E1,2.261217386E-1,6.387042046E0,2.020499420E1
2.609938995E1,5.144568682E-1,6.156732559E0,2.093779564E1
2.611862985E1,3.506681681E0,4.555335999E0,2.725245476E1
2.613786975E1,8.732605934E0,1.286142230E0,3.176113129E1
2.615710954E1,1.208076286E1,-1.246062398E0,2.681337166E1
2.617634943E1,1.130907822E1,-1.929213285E0,1.945723724E1
2.619558933E1,1.003011417E1,-1.989632010E0,1.472961807E1
2.621482923E1,9.252447128E0,-2.821736097E0,1.296969700E1
2.623406912E1,7.951349735E0,-4.225724697E0,1.070907784E1
2.625330902E1,7.156932354E0,-5.130809784E0,7.211967468E0
2.627254891E1,8.672785759E0,-5.369493961E0,4.137190342E0
2.629178870E1,9.282955170E0,-5.382654667E0,1.666600943E0
2.631102860E1,8.469395638E0,-5.983253002E0,-9.792626500E-1
2.633026850E1,8.793622971E0,-6.459424496E0,-2.559721947E0
2.634950839E1,1.079821014E1,-5.511867046E0,-3.191427231E0
2.636874829E1,1.303729439E1,-5.000999451E0,-3.370888948E0
2.638798808E1,1.557308769E1,-4.230510235E0,-3.696312666E0
2.640722798E1,1.564008713E1,-3.483351469E0,-5.973681927E0
2.642646787E1,1.396451283E1,-2.951546669E0,-6.259624004E0
2.644570777E1,1.352782249E1,-2.882154942E0,-3.407379389E0
2.646494766E1,1.520399475E1,-1.865205288E0,1.155135155E0
2.648418745E1,1.474876022E1,-1.137787223E0,4.846064091E0
2.650342735E1,1.656491280E1,-2.334198475E0,1.349252892E1
2.652266724E1,2.048495483E1,-1.314257860E0,2.531307220E1
2.654190714E1,1.841815376E1,2.813959360E0,2.831127930E1
2.656114704E1,9.473783493E0,6.779464722E0,1.748256111E1
2.658038683E1,5.864808083E0,9.183054924E0,1.237567902E1
2.659962672E1,5.639883041E0,9.390632629E0,1.530389500E1
2.661886662E1,5.587839127E0,8.055437088E0,1.640878105E1
2.663810652E1,4.882554531E0,8.866005898E0,1.561197090E1
2.665734641E1,8.404789567E-1,9.744770050E0,1.149811077E1
2.667658620E1,-2.789433002E0,1.049013424E1,7.937591076E0
2.669582610E1,-5.114060402E0,1.102552891E1,9.926624298E0
2.671506600E1,-5.255835056E0,1.022572803E1,1.584886074E1
2.673430589E1,-5.221138954E0,7.980063438E0,1.973420715E1
2.675354568E1,-5.901299000E0,5.534000397E0,1.863530350E1
2.677278558E1,-3.782454491E0,4.045664787E0,1.727019691E1
2.679202548E1,1.015753269E0,3.209971666E0,1.846840286E1
2.681126537E1,5.004588604E0,4.182653904E0,1.871007919E1
2.683050516E1,1.075932693E1,5.363512039E0,2.003450584E1
2.684974506E1,1.680000687E1,5.397609711E0,2.299143600E1
2.686898495E1,1.931366730E1,1.588834286E0,1.962832451E1
2.688822485E1,1.960140419E1,-1.369891018E-1,1.549472332E1
2.690746464E1,1.986102676E1,-9.481559992E-1,1.288235855E1
2.692670454E1,1.715055656E1,-1.350150228E0,9.157332420E0
2.694594443E1,1.305464172E1,-1.893320918E0,5.033900738E0
2.696518433E1,1.073898792E1,-2.148754835E0,6.981059909E-1
2.698442412E1,1.057208824E1,-2.641077995E0,-2.580659151E0
2.700366402E1,9.073583603E0,-3.480958700E0,-5.751149178E0
2.702290391E1,7.459026337E0,-5.200201988E0,-8.742775917E0
2.704214370E1,5.721239090E0,-6.760920525E0,-1.213400364E1
2.706138360E1,5.047060966E0,-7.960322857E0,-1.551984787E1
2.708062350E1,6.962515831E0,-8.852845192E0,-1.501556015E1
2.709986339E1,8.565108299E0,-1.063310528E1,-1.085922718E1
2.711910318E1,1.171825027E1,-1.051226807E1,-4.398606300E0
2.713834308E1,1.647099495E1,-6.074778557E0,4.614558697E0
2.715758298E1,1.902533340E1,-3.756731451E-1,1.235534000E1
2.717682277E1,1.796172333E1,4.038486481E0,1.343091393E1
2.719606266E1,2.120519447E1,6.061617851E0,1.813759613E1
2.721530256E1,2.372423744E1,6.917650223E0,2.718844795E1
2.723454245E1,2.087797546E1,8.499305725E0,3.182633591E1
2.725378224E1,1.078564835E1,1.022393322E1,2.434098816E1
2.727302214E1,4.816751957E0,1.203290653E1,1.677009773E1
2.729226204E1,4.054637909E0,1.183131123E1,1.487258911E1
2.731150183E1,3.103491068E0,9.941579819E0,1.388973713E1
2.733074173E1,3.742972851E0,8.240283012E0,1.143769264E1
2.734998162E1,3.839882135E0,6.827321053E0,9.032307625E0
2.736922141E1,4.072584152E0,5.872584820E0,7.311269760E0
2.738846131E1,3.668197155E0,5.861218929E0,5.560321808E0
2.740770120E1,4.407579422E0,5.667998791E0,5.503491879E0
2.742694100E1,4.284946918E0,4.960321426E0,7.040282249E0
2.744618089E1,3.469592810E0,4.463810444E0,5.870192051E0
2.746542079E1,1.957328916E0,3.634697676E0,2.196611166E0
2.748466058E1,2.293520451E0,3.637688637E0,9.720842242E-1
2.750390048E1,4.152743816E0,4.118646145E0,2.300100803E0
2.752314037E1,4.902893543E0,5.763113499E0,6.646065116E-1
2.754238016E1,6.680162430E0,9.836296082E0,-5.309075356E0
2.756162006E1,9.978668213E0,1.401416397E1,-7.465008259E0
2.758085985E1,1.266760349E1,1.426660633E1,-6.687939167E0
2.760009974E1,1.306780243E1,1.214477158E1,-8.087740541E-1
2.761933964E1,1.131745243E1,1.005344391E1,4.895116806E0
2.763857943E1,7.292127132E0,8.493922234E0,4.827519894E0
2.765781933E1,3.202793121E0,7.577471256E0,2.468196630E0
2.767705922E1,1.237687469E0,7.332805157E0,2.001596212E0
2.769629902E1,2.792423964E0,6.067001820E0,3.285345554E0
2.771553891E1,4.905286312E0,2.437089920E0,2.718844652E0
2.773477881E1,6.355935097E0,-2.104487419E0,6.610172391E-1
2.775401860E1,8.652446747E0,-6.092126369E0,-1.627119333E-1
2.777325850E1,1.127258778E1,-7.983054638E0,9.469595551E-1
2.779249829E1,1.369591904E1,-8.921639442E0,1.380658627E0
2.781173818E1,1.326760292E1,-9.546165466E0,-1.747956991E0
2.783097808E1,1.058345413E1,-8.389834404E0,-5.119443893E0
2.785021787E1,9.282357216E0,-6.329015732E0,-4.929812908E0
2.786945777E1,8.372486115E0,-4.034897327E0,-3.377469063E0
2.788869756E1,6.607181549E0,-9.373882413E-1,-4.507479668E0
2.790793745E1,9.839286804E0,4.905286431E-1,3.951746702E0
2.792717725E1,1.415294743E1,5.192425251E-1,1.788933945E1
2.794641714E1,2.069133568E1,4.995017052E0,3.171806145E1
2.796565704E1,2.542972183E1,1.291526031E1,2.731945419E1
2.798489683E1,2.168854523E1,1.859342766E1,1.113559818E1
2.800413673E1,1.785823441E1,1.986341858E1,3.388834953E0
2.802337652E1,1.410808277E1,1.704048729E1,5.429912567E0
2.804261641E1,7.390830994E0,1.336690521E1,7.326822758E0
2.806185631E1,4.648058116E-1,1.191386414E1,6.859624386E0
2.808109610E1,-4.898108006E0,1.204905796E1,6.118447304E0
2.810033600E1,-8.042875290E0,1.249472141E1,6.008377552E0
2.811957579E1,-9.272786140E0,1.268554878E1,6.159125328E0
2.813881568E1,-9.818349838E0,1.335015583E1,7.654639721E0
2.815805548E1,-7.896913052E0,1.357807255E1,9.476176262E0
2.817729537E1,-4.733601570E0,1.123908806E1,1.047338486E1
2.819653527E1,-3.516851187E0,8.301898003E0,1.058046341E1
2.821577506E1,-2.502294302E0,7.518846989E0,1.121396351E1
2.823501495E1,2.554338217E0,1.074736309E1,1.530688667E1
2.825425474E1,1.186481094E1,1.428156185E1,2.190928268E1
2.827349464E1,2.087259102E1,1.412722492E1,2.559482765E1
2.829273443E1,2.327259254E1,1.234636688E1,1.600200081E1
2.831197433E1,2.045683861E1,8.855237961E0,6.629314899E0
2.833121412E1,1.485225010E1,5.760720730E0,6.971488953E0
2.835045402E1,1.040279675E1,3.051447153E0,7.012166977E0
2.836969381E1,8.554939270E0,9.583254457E-1,5.800201893E0
2.838893370E1,6.406184196E0,-1.345962733E-1,3.407977581E0
2.840817350E1,7.094120979E0,-1.652244091E0,1.199402332E0
2.842741339E1,7.618747234E0,-4.133002758E0,5.641079545E-1
2.844665329E1,6.567101955E0,-7.066005230E0,-3.571287692E-1
2.846589308E1,5.213960648E0,-8.965308189E0,-1.083948612E0
2.848513298E1,5.591428280E0,-9.667003632E0,-1.954337835E0
2.850437277E1,6.876972198E0,-9.813564301E0,-2.731407166E0
2.852361266E1,7.540382385E0,-9.238688469E0,-4.133002758E0
2.854285245E1,8.537590981E0,-7.711469173E0,-7.100102901E0
2.856209235E1,9.254839897E0,-4.727619171E0,-1.051047325E1
2.858133214E1,1.028614616E1,-2.559721947E0,-1.169611740E1
2.860057204E1,1.343869019E1,-3.505485058E-1,-1.071924686E1
2.861981183E1,2.200499535E1,1.092323542E0,3.943969965E0
2.863905172E1,2.989353371E1,3.415156126E0,2.033839417E1
2.865829152E1,3.468217087E1,8.154739380E0,3.389732361E1
2.867753141E1,3.142972565E1,1.384965706E1,2.727638435E1
2.869677120E1,2.299562454E1,1.645185280E1,1.556471348E1
2.871601110E1,1.790489388E1,1.526261902E1,1.268196011E1
2.873525089E1,1.271127224E1,1.197906876E1,1.378564930E1
2.875449068E1,6.610172749E0,9.057432175E0,1.223031521E1
2.877373058E1,1.645065546E0,7.834699631E0,9.546764374E0
2.879297037E1,-1.689332843E0,7.829914093E0,7.694121361E0
2.881221027E1,-4.876572609E0,8.414958954E0,6.565905571E0
2.883145006E1,-7.457829952E0,9.884152412E0,7.124031067E0
2.885068995E1,-8.973084450E0,1.125882912E1,9.216554642E0
2.886992974E1,-1.074796104E1,1.139402294E1,1.322333622E1
2.888916964E1,-1.152742290E1,1.052183914E1,1.571366596E1
2.890840943E1,-1.105065346E1,8.565707207E0,1.425165176E1
2.892764933E1,-9.028120041E0,6.209972858E0,1.178584766E1
2.894688912E1,-7.140182972E0,5.076373100E0,1.131984615E1
2.896612902E1,-4.830510616E0,8.032107353E0,1.307797241E1
2.898536881E1,7.360322475E0,1.237986660E1,2.119203377E1
2.900460860E1,2.072423744E1,1.265623760E1,2.608057022E1
2.902384850E1,2.676013184E1,9.026325226E0,1.417986679E1
2.904308829E1,2.714896584E1,7.874779224E0,5.720640659E0
2.906232818E1,2.589452934E1,6.872784615E0,2.494517565E0
2.908156798E1,2.062194443E1,3.801596880E0,1.476969719E0
2.910080787E1,1.380897903E1,1.010369420E0,1.029511929E0
2.912004766E1,9.503094673E0,-1.265205026E0,1.471585929E-1
2.913928745E1,7.549355507E0,-3.269792080E0,-3.690928817E-1
2.915852735E1,6.025127411E0,-5.148158073E0,-9.655039310E-1
2.917776714E1,4.402195454E0,-6.573681831E0,-2.112264156E0
2.919700704E1,3.715455294E0,-7.197012424E0,-3.238685369E0
2.921624683E1,3.977469444E0,-7.237690449E0,-4.093521118E0
2.923548672E1,4.054637909E0,-7.009175777E0,-5.011766911E0
2.925472652E1,4.841876507E0,-5.959324837E0,-7.051050186E0
2.927396631E1,5.679962635E0,-4.084548473E0,-9.072985649E0
2.929320620E1,7.733004570E0,-2.761317253E0,-9.089735031E0
2.931244600E1,6.913462639E0,-7.118647546E-2,-1.151007557E1
2.933168579E1,9.393025398E0,1.072582722E0,-9.507881165E0
2.935092568E1,1.499223042E1,1.199402332E0,-5.413761139E-1
2.937016548E1,2.287059975E1,1.731207132E0,9.924231529E0
2.938940537E1,2.823769951E1,5.075176716E0,2.018226242E1
2.940864516E1,2.706222534E1,9.801001549E0,1.818605042E1
2.942788495E1,2.181596184E1,1.306002617E1,1.036451149E1
2.944712485E1,1.876930046E1,1.396451283E1,5.580062389E0
2.946636464E1,1.607797432E1,1.334477234E1,3.465405464E0
2.948560454E1,1.341177082E1,1.215553856E1,1.930409670E0
2.950484433E1,1.011206818E1,1.063669491E1,9.361918569E-1
2.952408412E1,6.273382664E0,8.932407379E0,3.607180119E-1
2.954332402E1,2.839682341E0,7.929215908E0,1.579262912E-1
2.956256381E1,4.666004330E-2,7.686344624E0,1.132403374E0
2.958180360E1,-1.658824325E0,8.048856735E0,3.240479946E0
2.960104350E1,-2.326421738E0,8.375477791E0,5.142175674E0
2.962028329E1,-2.953341246E0,8.556734085E0,5.407779217E0
2.963952308E1,-3.157329559E0,8.352746010E0,5.456831932E0
2.965876298E1,-2.126022816E0,7.560122967E0,6.189035892E0
2.967800277E1,-4.426721856E-2,5.915057659E0,7.817949772E0
2.969724256E1,6.293123364E-1,4.938187599E0,8.415556908E0
2.971648245E1,-1.119840980E0,6.302694798E0,7.003193855E0
2.973572224E1,-3.827918053E0,1.122951698E1,1.400997639E0
2.975496204E1,1.773081541E0,1.596371651E1,1.747956991E0
2.977420193E1,1.258624744E1,1.571905041E1,7.162316322E0
2.979344172E1,2.230948257E1,1.273161125E1,1.227278709E1
2.981268152E1,2.840041161E1,8.815756798E0,1.472842121E1
2.983192141E1,2.921217728E1,4.826921463E0,1.103330517E1
2.985116120E1,2.314816666E1,2.351546526E0,7.235895634E0
2.987040100E1,1.576989746E1,1.022931710E-1,4.028316975E0
2.988964089E1,1.094596672E1,-8.141579032E-1,1.988435626E0
2.990888068E1,8.643473625E0,-1.172483087E0,2.853440940E-1
2.992812048E1,6.393023968E0,-1.462612867E0,-1.962114573E0
2.994736037E1,4.634299278E0,-1.720439434E0,-3.853042603E0
2.996660016E1,4.060619831E0,-1.819143414E0,-4.365106583E0
2.998583995E1,4.728217602E0,-1.715653777E0,-3.664009571E0
3.000507975E1,6.075974941E0,-1.120439172E0,-3.613760471E0
3.002431964E1,7.486543655E0,-8.500502706E-1,-4.772484779E0
3.004355943E1,1.013121128E1,-1.987837434E0,-5.632106304E0
3.006279923E1,1.203529930E1,-4.375276089E0,-4.670789719E0
3.008203912E1,1.123370457E1,-5.641079426E0,-6.404987812E0
3.010127891E1,9.209974289E0,-6.564708710E0,-1.049013424E1
3.012051870E1,9.035896301E0,-8.300103188E0,-1.211306667E1
3.013975850E1,1.267478180E1,-1.139043427E1,-6.203990936E0
3.015899839E1,1.804487419E1,-1.582553101E1,5.297709465E0
3.017823818E1,1.838046646E1,-1.958704758E1,1.626341820E1
3.019747798E1,1.980957985E1,-1.747179222E1,3.111148071E1
3.021671787E1,2.309971237E1,-8.519046783E0,3.862195206E1
3.023595766E1,2.595135880E1,1.475773335E0,3.491965866E1
3.025519745E1,2.939163780E1,7.874779224E0,2.750071144E1
3.027443724E1,3.104029274E1,1.021555805E1,2.107717896E1
3.029367714E1,2.697608376E1,9.757930756E0,1.519801331E1
3.031291693E1,1.884347916E1,7.869993687E0,1.047936630E1
3.033215672E1,1.164526939E1,5.246861935E0,9.580264091E0
3.035139652E1,6.674778938E0,3.188436270E0,1.031904793E1
3.037063641E1,3.877569199E0,2.535195589E0,9.760921478E0
3.038987620E1,2.204986095E0,2.794218540E0,7.895118237E0
3.040911600E1,4.881358147E-1,3.257827997E0,5.343173027E0
3.042835579E1,-1.325623751E0,3.853640795E0,3.349951744E0
3.044759568E1,-1.679761529E0,5.310869694E0,2.590230465E0
3.046683548E1,-9.541380405E-1,6.594020844E0,4.338187218E0
3.048607527E1,-7.836494446E-1,7.649255753E0,6.561717987E0
3.050531506E1,-1.375873014E-2,9.177073479E0,6.567699909E0
3.052455485E1,2.402393818E0,1.142991543E1,5.994618893E0
3.054379475E1,5.137988567E0,1.273340607E1,6.778866768E0
3.056303454E1,6.174678802E0,1.281117249E1,9.019744873E0
3.058227433E1,8.132007599E0,1.305464172E1,1.149751282E1
3.060151412E1,1.181097221E1,1.437129307E1,1.372881985E1
3.062075391E1,1.601516151E1,1.550668716E1,1.522493267E1
3.063999381E1,1.720738602E1,1.465723515E1,1.048056316E1
3.065923360E1,1.382273865E1,1.089691448E1,6.135795593E0
3.067847339E1,1.035314560E1,6.708876610E0,3.485146284E0
3.069771318E1,8.056035995E0,3.473780155E0,1.282552958E0
3.071695298E1,5.599802971E0,4.881358147E-1,-8.333004713E-1
3.073619287E1,3.891926050E0,-1.993221283E0,-5.044668198E0
3.075543266E1,4.144967079E0,-3.239881754E0,-9.127422333E0
3.077467245E1,5.126622677E0,-5.021936417E0,-8.277371407E0
3.079391224E1,5.967699528E0,-7.088139057E0,-4.302893162E0
3.081315204E1,5.998208046E0,-8.864809990E0,-3.314059258E0
3.083239183E1,6.062216282E0,-1.011266708E1,-4.348955154E0
3.085163172E1,6.171089649E0,-1.097109222E1,-4.360919476E0
3.087087152E1,6.812366009E0,-1.191745281E1,-2.783450842E0
3.089011131E1,8.143373489E0,-1.260598755E1,-1.005583763E0
3.090935110E1,1.094955635E1,-1.251984596E1,2.750549555E0
3.092859089E1,1.439462280E1,-1.059003448E1,6.629314899E0
3.094783068E1,1.635434532E1,-8.029714584E0,6.678966045E0
3.096707058E1,1.712483406E1,-6.129215240E0,6.850651264E0
3.098631037E1,2.139243317E1,-6.637690067E0,1.687957001E1
3.100555016E1,2.856850815E1,-4.670191765E0,3.249213791E1
3.102478995E1,3.331167984E1,2.053640127E0,4.026641846E1
3.104402975E1,3.100021362E1,1.017308521E1,3.180360413E1
3.106326954E1,2.165983009E1,1.413918877E1,2.016312027E1
3.108250933E1,1.152682495E1,1.462911987E1,1.501436424E1
3.110174923E1,5.102694511E0,1.362832165E1,1.636810303E1
3.112098902E1,2.569891453E0,1.358824158E1,1.749811363E1
3.114022881E1,2.672782898E0,1.529193115E1,1.517647743E1
3.115946860E1,2.786442041E0,1.774577141E1,9.659226418E0
3.117870839E1,1.648654819E0,1.736830330E1,4.583451748E0
3.119794818E1,8.721838593E-1,1.492403507E1,4.883750916E0
3.121718798E1,-1.811366796E0,1.333220959E1,6.765107632E0
3.123642787E1,-3.723830223E0,1.408714485E1,6.477969170E0
3.125566766E1,-1.730010748E0,1.599721622E1,6.474380016E0
3.127490745E1,9.320043921E-1,1.524826241E1,7.651648521E0
3.129414724E1,3.031108141E0,1.213639641E1,1.099262714E1
3.131338704E1,5.623133183E0,9.321240425E0,1.661935043E1
3.133262683E1,9.735796928E0,9.547960281E0,2.193141556E1
3.135186662E1,1.823689842E1,1.044826031E1,2.632224464E1
3.137110641E1,2.359981155E1,8.584251404E0,2.139961052E1
3.139034620E1,2.280599213E1,3.241676569E0,1.078086281E1
3.140958600E1,1.849412537E1,-1.555334777E-1,5.670989513E0
3.142882589E1,1.496291828E1,-6.556333899E-1,2.822932482E0
3.144806568E1,1.101356411E1,-4.366901219E-1,-5.383850932E-1
3.146730548E1,7.232306480E0,-3.002992272E-1,-4.326821327E0
3.148654527E1,6.545566559E0,-1.430309772E0,-5.678168297E0
3.150578506E1,7.713263988E0,-2.958725214E0,-3.707080364E0
3.152502485E1,7.761718273E0,-5.003990173E0,-2.227717876E0
3.154426464E1,6.916453838E0,-7.037889481E0,-2.115255117E0
3.156350443E1,6.210571289E0,-8.563314438E0,-2.385644197E0
3.158274423E1,5.880959988E0,-9.442676544E0,-1.378265858E0
3.160198402E1,5.469992638E0,-9.889535904E0,-5.479564071E-1
3.162122381E1,5.738586903E0,-9.158528328E0,-2.489732027E0
3.164046360E1,6.493522644E0,-6.809973240E0,-2.544168711E0
3.165970339E1,9.229715347E0,-4.022335052E0,7.058826685E-1
3.167894318E1,1.117747307E1,-3.451646566E-1,3.222533941E0
3.169818308E1,1.466800308E1,4.392624378E0,4.914259434E0
3.171742287E1,2.310688972E1,7.060023308E0,1.513460350E1
3.173666266E1,2.928276443E1,1.079821014E1,2.707119942E1
3.175590245E1,2.891666412E1,1.520578957E1,2.642154694E1
3.177514224E1,2.074098587E1,1.787857246E1,1.271067429E1
3.179438204E1,1.498684597E1,1.777687836E1,4.999204636E0
3.181362183E1,1.263290691E1,1.604327774E1,4.200001717E0
3.183286162E1,1.066421223E1,1.332024574E1,4.727619171E0
3.185210141E1,8.100900650E0,1.074676514E1,5.439484119E0
3.187134120E1,4.845465660E0,9.116654396E0,5.495715618E0
3.189058100E1,1.421336651E0,8.491529465E0,4.572684288E0
3.190982079E1,-2.369492531E0,8.812766075E0,4.403391838E0
3.192906058E1,-6.817749977E0,9.385248184E0,5.275575638E0
3.194830037E1,-1.013300610E1,9.835697174E0,7.484749317E0
3.196754016E1,-1.129053402E1,9.555138588E0,9.774680138E0
3.198677995E1,-1.105184937E1,8.096714020E0,1.059661484E1
3.200601974E1,-9.114859581E0,6.555137634E0,1.141137123E1
3.202525954E1,-5.311468124E0,5.851647854E0,1.212203979E1
3.204449933E1,-2.933600664E0,7.349554539E0,1.374377537E1
3.206373912E1,3.458825111E0,1.105783176E1,1.772842216E1
3.208297891E1,1.433001614E1,1.322632694E1,2.212104797E1
3.210221870E1,2.254517555E1,1.177508068E1,1.674198151E1
3.212145850E1,2.441995239E1,1.125105190E1,6.857829571E0
3.214069829E1,2.296272278E1,1.190608692E1,2.660220623E0
3.215993808E1,1.981735802E1,1.014975548E1,3.312862873E0
3.217917787E1,1.505982780E1,5.756533146E0,5.729613781E0
3.219841766E1,9.269794464E0,1.713261008E0,6.934400082E0
3.221765745E1,5.794818401E0,-1.058225870E0,6.213562012E0
3.223689724E1,4.949553490E0,-3.273381472E0,3.873381615E0
3.225613704E1,5.483751297E0,-5.682355404E0,1.700698733E0
3.227537683E1,6.762714863E0,-8.730812073E0,1.040279627E0
3.229461662E1,9.355937004E0,-1.195813084E1,5.682953596E-1
3.231385641E1,1.164766216E1,-1.321137238E1,-1.986641049E0
3.233309620E1,9.899705887E0,-1.218844032E1,-8.771489143E0
3.235233600E1,7.709674358E0,-9.516854286E0,-1.607976723E1
3.237157579E1,8.496912956E0,-6.693323135E0,-1.616830254E1
3.239081548E1,9.950552940E0,-4.511068821E0,-1.330529022E1
3.241005527E1,1.109013462E1,-1.524227977E0,-9.818349838E0
3.242929506E1,1.302353573E1,-1.503290772E0,3.336791277E0
3.244853485E1,1.871845245E1,-8.733802289E-2,3.006581688E1
3.246777464E1,2.298605347E1,6.024528980E0,4.751607513E1
3.248701443E1,1.882553291E1,1.389153194E1,3.358386230E1
3.250625422E1,1.609233093E1,1.885544205E1,1.358345604E1
3.252549402E1,1.780678749E1,1.925205231E1,6.377470493E0
3.254473381E1,1.639023781E1,1.606541061E1,4.968696117E0
3.256397360E1,1.199402332E1,1.184865952E1,4.511667252E0
3.258321339E1,7.770093441E0,8.687741280E0,4.384847641E0
3.260245318E1,4.169493675E0,6.560521603E0,4.508676052E0
3.262169298E1,1.254437327E0,5.166104317E0,4.787439823E0
3.264093277E1,-7.250252366E-1,4.646263599E0,4.506283283E0
3.266017256E1,-1.878963947E0,4.839483738E0,4.523033142E0
3.267941224E1,-2.716451883E0,4.973481655E0,4.823332310E0
3.269865204E1,-3.636492252E0,4.704289436E0,4.958526611E0
3.271789183E1,-4.621737003E0,4.445864677E0,3.964308977E0
3.273713162E1,-5.670989513E0,4.498506546E0,2.674577475E0
3.275637141E1,-6.652645111E0,6.032305717E0,2.124228239E0
3.277561120E1,-6.651448727E0,9.689735413E0,-3.026920557E-1
3.279485100E1,-1.125823021E0,1.330648708E1,3.099303484E0
3.281409079E1,9.736993790E0,1.279681587E1,1.229551888E1
3.283333058E1,1.878365707E1,8.775676727E0,2.206840515E1
3.285257037E1,2.197687912E1,5.164309502E0,2.436790848E1
3.287181006E1,1.890210342E1,4.596014023E0,1.735095596E1
3.289104985E1,1.272383404E1,4.342973232E0,9.585647583E0
3.291028964E1,9.322437286E0,4.524827480E0,3.625126362E0
3.292952943E1,9.192625999E0,4.009772778E0,1.466800332E0
3.294876922E1,1.121515942E1,2.924029350E0,1.780858278E0
3.296800902E1,1.311865044E1,3.741178274E0,-1.569691658E0
3.298724881E1,1.291825104E1,4.787439823E0,-7.138388157E0
3.300648860E1,1.189472103E1,3.431307554E0,-9.830911636E0
3.302572829E1,1.059840965E1,4.426721856E-2,-5.400002480E0
3.304496808E1,1.255514050E1,-2.699702263E0,1.220339537E0
3.306420787E1,1.439581966E1,-4.138985157E0,2.787040234E0
3.308344766E1,1.292961693E1,-4.736592293E0,-7.597211599E-1
3.310268745E1,1.126301575E1,-6.233901024E0,-2.337787628E0
3.312192724E1,1.175892830E1,-6.911668301E0,1.552941918E0
3.314116693E1,1.319880962E1,-6.160920143E0,2.848057270E0
3.316040672E1,1.303430271E1,-5.033302307E0,6.083751321E-1
3.317964652E1,1.189053345E1,-4.285545349E0,-2.327618122E0
3.319888631E1,1.138744259E1,-4.965106964E0,-7.944171429E-1
3.321812610E1,1.282732391E1,-6.886543751E0,5.786443233E0
3.323736589E1,1.177388382E1,-7.474579811E0,1.078804111E1
3.325660568E1,8.236095428E0,-4.989633560E0,9.868598938E0
3.327584537E1,3.661616802E0,-1.575673699E0,8.463413239E0
3.329508516E1,4.151547253E-1,3.290131092E-1,1.051525879E1
3.331432495E1,1.711466432E0,5.772684813E-1,1.758246040E1
3.333356475E1,3.769891977E0,1.050449133E0,2.558824730E1
3.335280454E1,5.325226784E0,2.512463808E0,2.610569572E1
3.337204422E1,8.353941917E0,4.968098164E0,1.956790543E1
3.339128402E1,1.248873997E1,7.223931789E0,1.450529099E1
3.341052381E1,1.481037617E1,7.795217991E0,1.407039547E1
3.342976360E1,1.561915016E1,8.046463966E0,1.301755333E1
3.344900339E1,1.443829155E1,7.765905857E0,1.145982552E1
3.346824308E1,1.225543976E1,6.826124668E0,9.109476089E0
3.348748287E1,1.062054348E1,6.902096748E0,6.596413612E0
3.350672266E1,1.007557774E1,7.117451191E0,6.654439926E0
3.352596245E1,9.906285286E0,6.683752060E0,8.977870941E0
3.354520224E1,9.248857498E0,6.588038921E0,9.832706451E0
3.356444193E1,9.676574707E0,6.687341213E0,1.058106136E1
3.358368173E1,1.052662468E1,5.681757450E0,1.466082478E1
3.360292152E1,1.253958702E1,4.834099770E0,1.737248993E1
3.362216131E1,1.319282722E1,4.700700283E0,1.684487343E1
3.364140100E1,1.340279770E1,4.077369690E0,1.570888042E1
3.366064079E1,1.286560917E1,3.131008387E0,1.180499077E1
3.367988058E1,1.122832012E1,2.002194405E0,5.845067501E0
3.369912037E1,9.507881165E0,1.381855011E-1,2.408375978E0
3.371836016E1,7.892127514E0,-1.292124271E0,-7.447660565E-1
3.373759985E1,5.119443893E0,-2.096710920E0,-2.921636343E0
3.375683964E1,1.686939955E0,-1.961516380E0,-4.491926193E0
3.377607943E1,-3.080759048E-1,-1.013360381E0,-5.679962635E0
3.379531912E1,-1.144965649E0,-4.666004181E-1,-7.554141045E0
3.381455891E1,-2.437089920E0,-1.469791293E0,-8.703293800E0
3.383379870E1,-2.072184324E0,-4.824528694E0,-5.242076397E0
3.385303850E1,-2.943171859E-1,-9.149555206E0,1.509871125E0
3.387227818E1,2.931207657E0,-1.276032448E1,7.227520943E0
3.389151798E1,7.288537979E0,-1.374975681E1,9.692128181E0
3.391075777E1,9.838089943E0,-1.251266766E1,7.814360619E0
3.392999756E1,9.703494072E0,-1.063490009E1,3.957130432E0
3.394923724E1,8.407780647E0,-8.914461136E0,3.679563046E0
3.396847704E1,9.107083321E0,-7.436294556E0,7.488936901E0
3.398771683E1,1.260658646E1,-4.539184570E0,1.010249710E1
3.400695662E1,1.287039471E1,2.919243574E-1,1.067378330E1
3.402619631E1,1.583809280E1,9.930214286E-2,2.183091736E1
3.404543610E1,1.589731503E1,-3.129213810E0,3.945824432E1
3.406467589E1,1.556112385E1,3.194418252E-1,4.713501740E1
3.408391568E1,1.529791355E1,7.442276478E0,3.411088181E1
3.410315537E1,1.119422245E1,1.322273827E1,1.654577065E1
3.412239516E1,6.838686943E0,1.218544960E1,1.356670666E1
3.414163495E1,3.792623997E0,7.438089371E0,1.968036842E1
3.416087464E1,7.549355626E-1,5.404788017E0,2.419323158E1
3.418011443E1,-2.851646423E0,8.614759445E0,2.222453690E1
3.419935422E1,-6.623332977E0,1.274895859E1,1.329153156E1
3.421859391E1,-1.042253685E1,1.382333660E1,6.419344902E0
3.423783370E1,-1.282194042E1,1.314497089E1,7.468597889E0
3.425707350E1,-1.316590881E1,1.302772331E1,1.202632618E1
3.427631318E1,-1.241755295E1,1.293141174E1,1.461296749E1
3.429555298E1,-1.193719387E1,1.246421337E1,1.320598793E1
3.431479433E1,-1.069232845E1,1.146760273E1,1.396929836E1
3.433403256E1,-6.591030121E0,9.688538551E0,2.202473640E1
3.435327224E1,2.135594130E0,9.344570160E0,3.184846878E1
3.437251204E1,1.342672634E1,9.543772697E0,3.491606903E1
3.439175172E1,1.936750603E1,8.082955360E0,2.799123955E1
3.441099152E1,2.100419807E1,5.443073273E0,1.601875114E1
3.443023131E1,1.912224197E1,1.835294962E0,9.157930374E0
3.444947100E1,1.561795330E1,-5.335994363E-1,4.871188641E0
3.446871079E1,1.153161049E1,-9.852447510E-1,3.445664644E-1
3.448795058E1,8.217551231E0,-1.441675663E0,-1.734796405E0
3.450719027E1,7.170093060E0,-3.388236761E0,-9.631111026E-1
3.452643006E1,6.722635269E0,-6.742375851E0,8.374879509E-2
3.454566985E1,4.113860130E0,-9.848857880E0,-5.282155871E-1
3.456490954E1,1.878365725E-1,-1.211306667E1,-2.180459738E0
3.458414933E1,-1.839482427E0,-1.277946758E1,-3.857230186E0
3.460338912E1,-1.360917926E0,-1.224826050E1,-5.693123341E0
3.462262881E1,1.637288928E0,-1.185523987E1,-6.815955162E0
3.464186860E1,6.525227547E0,-1.026520920E1,-6.283552170E0
3.466110829E1,1.160219860E1,-7.089335442E0,-5.061418056E0
3.468034808E1,1.656311798E1,-3.826721668E0,-1.995614052E0
3.469958787E1,2.138585281E1,-5.850451589E-1,2.590230465E0
3.471882756E1,2.380380058E1,3.102294445E0,2.802593470E0
3.473806735E1,2.887778091E1,6.077769279E0,9.105886459E0
3.475730714E1,3.482813263E1,7.456035137E0,1.732822418E1
3.477654683E1,3.307000351E1,8.646464348E0,2.605125809E1
3.479578662E1,2.114896202E1,9.664610863E0,2.227359009E1
3.481502631E1,1.601217079E1,1.096690464E1,1.535773373E1
3.483426610E1,1.574955845E1,1.173799133E1,1.270170116E1
3.485350589E1,1.292961693E1,1.093340492E1,1.143888855E1
3.487274558E1,8.103293419E0,9.330811501E0,8.688339233E0
3.489198537E1,4.195814610E0,8.201997757E0,5.946762562E0
3.491122506E1,1.288534999E0,7.659425259E0,4.604987144E0
3.493046485E1,-7.208378315E-1,7.525427341E0,4.515854359E0
3.494970454E1,-2.023131609E0,7.457829952E0,6.026922226E0
3.496894433E1,-2.468794823E0,8.230113029E0,8.808578491E0
3.498818412E1,-2.682354212E0,1.021615601E1,1.031486034E1
3.500742381E1,-2.829512835E0,1.095434189E1,9.686145782E0
3.502666360E1,-4.952544689E0,1.029212856E1,1.012223816E1
3.504590329E1,-5.203791142E0,9.387042999E0,1.140778160E1
3.506514308E1,-1.296909928E0,6.947560310E0,1.302233887E1
3.508438277E1,-1.506281853E0,7.460821152E0,1.301695538E1
3.510362256E1,-3.798007727E0,1.333699512E1,1.171645641E1
3.512286235E1,3.318246841E0,1.866042709E1,1.371027565E1
3.514210204E1,1.504307747E1,1.830688858E1,2.006920242E1
3.516134183E1,2.352025032E1,1.370190048E1,2.160240364E1
3.518058152E1,2.753121948E1,9.943972588E0,1.832004929E1
3.519982131E1,2.727099991E1,6.853044033E0,9.713065147E0
3.521906100E1,2.319841576E1,3.498306751E0,3.282952785E0
3.523830079E1,1.726062584E1,1.304088384E-1,8.123632669E-1
3.525754048E1,1.376650715E1,-2.715255499E0,-6.293123364E-1
3.527678027E1,1.191864967E1,-4.891527653E0,-2.389831543E0
3.529601995E1,1.074915791E1,-7.159923553E0,-4.409373760E0
3.531525974E1,9.460023880E0,-9.407382011E0,-6.401398659E0
3.533449943E1,7.872386456E0,-1.140778160E1,-7.441080093E0
3.535373923E1,7.277770042E0,-1.255274773E1,-9.493523598E0
3.537297891E1,5.327021599E0,-1.200598717E1,-1.345065403E1
3.539221870E1,2.456830740E0,-1.033878803E1,-1.712483406E1
3.541145850E1,2.450250387E0,-9.421140671E0,-1.668874168E1
3.543069818E1,3.832703590E0,-8.615956306E0,-1.266521072E1
3.544993787E1,5.018945694E0,-7.248457909E0,-1.313181114E1
3.546917766E1,2.080260277E1,-4.597210407E0,-3.233899832E0
3.548841745E1,3.405943680E1,-1.827518344E0,9.115457535E0
3.550765714E1,3.937509155E1,-6.891329288E-1,1.912762642E1
3.552689693E1,3.907060623E1,3.864408493E0,2.651725960E1
3.554613662E1,3.636013794E1,8.657232285E0,2.913800049E1
3.556537641E1,2.741456985E1,1.244267750E1,2.653281403E1
3.558461610E1,1.814836311E1,1.230150127E1,1.826979828E1
3.560385579E1,1.100399303E1,1.048594666E1,1.036690426E1
3.562309558E1,6.652047157E0,8.923434258E0,5.961119175E0
3.564233527E1,3.907479286E0,7.978269100E0,4.869394302E0
3.566157506E1,1.190429211E0,7.458428383E0,5.332405090E0
3.568081474E1,-9.110672474E-1,6.817151546E0,6.327819347E0
3.570005454E1,-3.341576815E0,6.488138676E0,6.816553593E0
3.571929422E1,-5.181657314E0,6.650252342E0,5.268397331E0
3.573853402E1,-4.957928658E0,7.564908981E0,3.977469444E0
3.575777370E1,-3.741178274E0,7.749155998E0,5.189434052E0
3.577701350E1,-2.443670034E0,7.025925636E0,7.041478634E0
3.579625318E1,-1.746760488E0,5.577669621E0,8.583653450E0
3.581549298E1,-1.214955688E0,6.506084919E0,9.692726135E0
3.583473266E1,-2.111067772E0,1.088495064E1,9.308678627E0
3.585397235E1,4.600799561E0,1.443410397E1,7.789834023E0
3.587321214E1,1.317308712E1,1.311565876E1,1.278903866E1
3.589245183E1,1.956132507E1,1.039143085E1,1.382991695E1
3.591169162E1,2.722075081E1,9.620942116E0,1.681616020E1
3.593093131E1,2.640778923E1,6.781857491E0,1.304088306E1
3.595017110E1,2.129193497E1,2.320439816E0,6.988836765E0
3.596941079E1,1.666900063E1,-3.104687333E-1,4.999204636E0
3.598865058E1,1.464108372E1,-8.099704385E-1,4.663012981E0
3.600789027E1,1.365105343E1,-1.402194023E0,1.756331801E0
3.602712995E1,1.217946720E1,-2.371287346E0,-3.736990690E0
3.604636974E1,9.482755661E0,-3.529413462E0,-6.461219311E0
3.606560943E1,7.350152969E0,-5.559125423E0,-6.218348026E0
3.608484922E1,9.962516785E0,-6.666403770E0,-5.469394207E0
3.610408891E1,1.489173126E1,-6.296712875E0,-6.856633186E0
3.612332870E1,1.418525124E1,-7.223931789E0,-1.217109203E1
3.614256839E1,1.030110168E1,-8.391031265E0,-2.051187325E1
3.616180808E1,7.783852100E0,-9.099306107E0,-2.355075836E1
3.618104787E1,1.275613785E1,-1.070070267E1,-1.863769531E1
3.620028756E1,1.903071594E1,-1.355713463E1,-7.103094101E0
3.621952735E1,2.096471596E1,-1.663968849E1,4.541577339E0
3.623876704E1,2.282692909E1,-1.592483330E1,1.304806232E1
3.625800672E1,2.590709114E1,-1.343031502E1,1.675693703E1
3.627724652E1,2.798047066E1,-1.204427242E1,1.777388573E1
3.629648620E1,2.815215683E1,-1.235474110E1,2.125963020E1
3.631572589E1,2.924866676E1,-1.233679581E1,3.124667358E1
3.633496568E1,3.092783165E1,-8.175676346E0,4.128636169E1
3.635420537E1,2.880180740E1,-9.810572863E-1,3.954917145E1
3.637344516E1,2.339702034E1,5.132604599E0,2.922114944E1
3.639268485E1,1.727917099E1,8.007580757E0,2.223590279E1
3.641192454E1,1.118465137E1,8.599804878E0,1.864068604E1
3.643116433E1,5.866602898E0,8.545368195E0,1.469372559E1
3.645040402E1,2.345564365E0,8.443074226E0,1.079043388E1
3.646964370E1,-1.238285750E-1,9.056833267E0,8.210372925E0
3.648888350E1,-2.700898647E0,1.112901783E1,5.114658356E0
3.650812318E1,-2.405983210E0,1.276690483E1,2.528615236E0
3.652736298E1,-1.274178028E0,1.277468204E1,3.102892876E0
3.654660266E1,-1.674377680E0,1.238106251E1,5.653641701E0
3.656584235E1,-2.064407825E0,1.199043465E1,7.278368473E0
3.658508214E1,-1.846660852E0,1.171226883E1,8.264809608E0
3.660432183E1,3.026920557E-1,1.143529987E1,1.005643559E1
3.662356152E1,3.530609846E0,1.153460121E1,1.334058475E1
3.664280131E1,8.280363083E0,1.224347496E1,1.719781494E1
3.666204100E1,1.621017647E1,1.336271763E1,2.130629158E1
3.668128068E1,2.182373810E1,1.337647724E1,2.190210342E1
3.670052048E1,2.039402771E1,1.124925709E1,1.252223873E1
3.671976016E1,1.577528191E1,7.228118896E0,5.975476265E0
3.673899985E1,1.039741230E1,3.894318819E0,5.027918816E0
3.675823964E1,7.344171047E0,4.540380836E-1,1.129412293E0
3.677747933E1,4.673182487E0,-1.888535261E0,-6.278168201E0
3.679671902E1,3.263810158E0,-1.853839397E0,-1.148913765E1
3.681596527E1,4.455435753E0,-3.969094515E0,-9.108279228E0
3.683519850E1,5.221138954E0,-8.011768341E0,-4.174279213E0
3.685443818E1,5.168497086E0,-1.090349483E1,-2.423929453E0
3.687367798E1,8.344370842E0,-1.141615677E1,-2.609373093E0
3.689291766E1,1.264128208E1,-1.094716358E1,-3.212962627E0
3.691215735E1,1.317368507E1,-1.163809109E1,-5.081159115E0
3.693139714E1,1.394656658E1,-1.349013615E1,-5.542375565E0
3.695063683E1,1.612882042E1,-1.493779373E1,-7.310073376E-1
3.696987652E1,1.726840210E1,-1.441197109E1,4.099503517E0
3.698911620E1,1.786421585E1,-1.337408352E1,5.309075356E0
3.700835600E1,2.190509415E1,-1.267717457E1,1.779781532E1
3.702759568E1,3.268715286E1,-1.030708313E1,3.867399597E1
3.704683537E1,3.828037643E1,-5.473581553E-1,4.777988434E1
3.706607516E1,3.716053391E1,1.023709393E1,3.662633896E1
3.708531485E1,3.114737320E1,1.517887020E1,2.731406975E1
3.710455454E1,1.902353859E1,1.427139282E1,2.307698059E1
3.712379423E1,9.493523598E0,1.173200989E1,2.325584412E1
3.714303402E1,3.619144201E0,1.015753174E1,2.053041840E1
3.716227370E1,1.301097274E0,9.911669731E0,1.518305779E1
3.718151339E1,7.722834945E-1,1.041176987E1,1.184148121E1
3.720075318E1,-3.122633696E-1,1.074975586E1,9.590433121E0
3.721999287E1,-2.260020971E0,1.017248726E1,7.318448067E0
3.723923256E1,-4.895116806E0,9.378668785E0,6.721438885E0
3.725847224E1,-7.309474945E0,1.053380394E1,7.292725086E0
3.727771204E1,-6.842874527E0,1.392742443E1,7.473981380E0
3.729695172E1,-4.958526611E0,1.669352722E1,8.218747139E0
3.731619141E1,-7.249056339E0,1.487797260E1,8.934201241E0
3.733543110E1,-1.072463131E1,1.147537899E1,1.112243748E1
3.735467089E1,-7.233502865E0,9.727422714E0,1.742214203E1
3.737391058E1,1.676172256E0,9.955338478E0,2.666800880E1
3.739315027E1,2.035574150E1,1.065523911E1,3.444647598E1
3.741238995E1,3.264348602E1,9.357132912E0,2.762274551E1
3.743162974E1,3.136691475E1,3.870390654E0,9.329017639E0
3.745086943E1,2.350050926E1,-9.128618240E-1,2.456232548E0
3.747010912E1,1.515434361E1,-3.388236761E0,8.362914920E-1
3.748934881E1,8.292924881E0,-3.033500910E0,-1.542772412E0
3.750858860E1,3.947559118E0,-6.466603279E-1,-3.388236761E0
3.752782829E1,2.520240545E0,8.291130662E-1,-4.186841488E0
3.754706798E1,4.494917393E0,-8.225327730E-1,-5.322834015E0
3.756630766E1,6.254240036E0,-2.341975212E0,-5.378467083E0
3.758554735E1,6.638288021E0,-4.943571568E0,-4.057030678E0
3.760478714E1,6.725028038E0,-8.165507317E0,-2.349751949E0
3.762402683E1,6.045466423E0,-1.125105190E1,-2.215155602E0
3.764326652E1,5.541777134E0,-1.307139206E1,-2.542972326E0
3.766250620E1,7.468597889E0,-1.361934853E1,-2.964707375E0
3.768174589E1,1.106082249E1,-1.224227905E1,-4.382454872E0
3.770098568E1,1.445085430E1,-1.009651470E1,-4.340580463E0
3.772022537E1,1.865205193E1,-7.328019142E0,-1.487737536E0
3.773946506E1,2.111127663E1,-5.750551224E0,1.214955688E0
3.775870474E1,2.684268379E1,-6.199803352E0,1.620060539E1
3.777794443E1,3.155774117E1,-4.100699902E0,3.842394638E1
3.779718422E1,3.065086174E1,2.323430777E0,4.571726990E1
3.781642391E1,2.349632263E1,8.334799767E0,3.336312485E1
3.783566360E1,1.448674679E1,1.173021507E1,1.961695862E1
3.785490329E1,1.003729248E1,1.266042423E1,1.658106422E1
3.787414298E1,7.119843960E0,1.170808125E1,1.696750450E1
3.789338277E1,5.218746185E0,1.040698433E1,1.466919899E1
3.791262245E1,4.012165546E0,9.098110199E0,1.213639641E1
3.793186214E1,1.532602906E0,8.383852005E0,8.898907661E0
3.795110183E1,-1.097707391E0,8.542376518E0,4.962115765E0
3.797034152E1,-2.999403238E0,9.211171150E0,2.915654421E0
3.798958120E1,-4.966901779E0,9.436694145E0,3.620938778E0
3.800882100E1,-6.824330330E0,9.260223389E0,5.251647472E0
3.802806068E1,-7.530212879E0,8.263612747E0,5.454439163E0
3.804730037E1,-7.732406139E0,6.632904530E0,5.423930645E0
3.806654006E1,-7.834699631E0,5.209175110E0,6.367300987E0
3.808577974E1,-6.369095802E0,4.162913322E0,9.113064766E0
3.810501943E1,-5.894120216E0,5.638686657E0,1.217468166E1
3.812425912E1,-5.700899959E-1,8.922237396E0,1.791625977E1
3.814349891E1,1.121874905E1,1.064686394E1,2.678884506E1
3.816273860E1,1.953021812E1,8.273782730E0,2.363929367E1
3.818197829E1,2.314457703E1,6.498906136E0,1.858983994E1
3.820121798E1,2.513181686E1,6.075974941E0,1.786720657E1
3.822045766E1,2.232623100E1,3.857230186E0,1.419900990E1
3.823969735E1,1.653978920E1,1.439880967E0,9.719645500E0
3.825893704E1,1.218724346E1,-1.740778536E-1,6.629913330E0
3.827817683E1,9.724431038E0,-1.489532113E0,5.058426857E0
3.829741652E1,8.304290771E0,-3.028116941E0,3.531208038E0
3.831665620E1,7.389036179E0,-4.499104977E0,1.355534077E0
3.833589589E1,6.765107632E0,-5.554937840E0,-1.268195987E0
3.835513558E1,6.878168583E0,-7.057032108E0,-2.839682341E0
3.837437527E1,7.864011765E0,-8.838488579E0,-3.150151014E0
3.839361495E1,9.095717430E0,-1.004985523E1,-4.734797955E0
3.841285464E1,9.832706451E0,-9.208179474E0,-7.880163193E0
3.843209433E1,9.123832703E0,-7.001997471E0,-1.143350506E1
3.845133412E1,8.379665375E0,-5.609374523E0,-1.276690483E1
3.847057381E1,7.908876896E0,-3.288336515E0,-1.351286793E1
3.848981350E1,9.540184021E0,-1.382453322E0,-1.103689480E1
3.850905318E1,1.058943653E1,-2.054238319E0,1.077368379E0
3.852829287E1,1.353739452E1,-4.342973232E0,2.028335953E1
3.854753256E1,1.545344639E1,-2.231905222E0,4.073003006E1
3.856677224E1,1.639023781E1,5.663811207E0,3.510450363E1
3.858601193E1,1.725344849E1,1.319462204E1,2.242433739E1
3.860525162E1,1.802034760E1,1.574118423E1,1.697887039E1
3.862449131E1,1.707279015E1,1.483430386E1,1.347637749E1
3.864373100E1,1.440897942E1,1.272622681E1,9.500701904E0
3.866297068E1,1.074796104E1,1.050508976E1,6.458228111E0
3.868221048E1,7.171887875E0,8.788837433E0,4.267599106E0
3.870145016E1,4.512265205E0,7.403393269E0,3.667000771E0
3.872068985E1,2.727817774E0,6.571887493E0,3.893720627E0
3.873992954E1,1.197009563E0,5.860620975E0,4.305884361E0
3.875916922E1,-2.638086975E-1,5.249852657E0,4.897509575E0
3.877840891E1,-1.435693622E0,4.757529736E0,5.160720348E0
3.879764860E1,-2.635694027E0,4.059423447E0,5.959324837E0
3.881688829E1,-4.445864677E0,3.604787350E0,7.402196884E0
3.883612798E1,-7.670791149E0,4.990231514E0,5.227120876E0
3.885536766E1,-6.903293133E0,8.333004951E0,4.305884361E0
3.887460735E1,5.724828243E-1,9.642477036E0,1.299960709E1
3.889384704E1,1.025922680E1,5.789434433E0,1.980060768E1
3.891308672E1,1.525424480E1,-3.170489892E-2,2.662254524E1
3.893232641E1,1.815972900E1,-1.016351461E0,2.318465614E1
3.895156610E1,1.813340759E1,5.862415433E-1,1.275254822E1
3.897080579E1,1.610010719E1,1.574477315E0,4.505684853E0
3.899004548E1,1.520399475E1,1.089332461E0,1.260419369E0
3.900928516E1,1.516929913E1,8.829515576E-1,-1.194616675E0
3.902852485E1,1.498265934E1,1.546361685E0,-4.243670940E0
3.904776454E1,1.338485146E1,2.043470621E0,-6.639484406E0
3.906700433E1,1.145264721E1,1.709671736E0,-5.297111034E0
3.908624402E1,9.900901794E0,-2.787638307E-1,-9.643075466E-1
3.910548370E1,9.280562401E0,-2.653042078E0,2.995215654E0
3.912472339E1,1.024666500E1,-5.324030399E0,4.241876125E0
3.914396308E1,1.239003563E1,-6.337390900E0,2.837289333E0
3.916320277E1,1.314676571E1,-4.812564373E0,-6.705885530E-1
3.918244245E1,1.263051414E1,-1.981855392E0,-4.748556614E0
3.920168214E1,1.465065479E1,-1.238883972E0,-3.885345697E0
3.922092183E1,1.596371651E1,-2.070987940E0,2.604587555E0
3.924016152E1,1.559103394E1,-3.811766386E0,6.895516872E0
3.925940120E1,1.356371498E1,-5.312066078E0,6.449255466E0
3.927864089E1,1.205862999E1,-4.113860130E0,4.936991215E0
3.929788058E1,9.832706451E0,-1.852044702E0,2.281556368E0
3.931712027E1,7.559525013E0,-3.822534084E-1,1.277767301E0
3.933635995E1,8.848059654E0,-1.552941918E0,7.398009300E0
3.935559964E1,1.101954651E1,-3.564707518E0,1.667139435E1
3.937483933E1,1.282852077E1,-4.101297855E0,2.643231583E1
3.939407902E1,1.246600819E1,-9.182456732E-1,3.028834915E1
3.941331870E1,1.040518951E1,2.217548370E0,2.638386154E1
3.943255839E1,8.789435387E0,3.781257868E0,2.148814583E1
3.945179808E1,7.760521889E0,4.425525665E0,1.776969910E1
3.947103777E1,6.646663189E0,4.433900356E0,1.464766407E1
3.949027745E1,6.303891182E0,3.814757586E0,1.156869888E1
3.950951714E1,6.089135647E0,2.635095835E0,8.579465866E0
3.952875683E1,5.870790482E0,7.489534616E-1,4.892126083E0
3.954799652E1,5.788238049E0,-2.396411896E0,1.174875975E0
3.956723620E1,4.259224415E0,-5.435894966E0,-8.225327730E-1
3.958647589E1,1.069591761E0,-6.897909641E0,-1.238285750E-1
3.960571558E1,-1.368096352E0,-5.593223095E0,2.886940479E0
3.962495527E1,-2.751745939E0,-9.098708034E-1,8.874381065E0
3.964419495E1,1.190429255E-1,7.367500782E0,1.534457302E1
3.966343464E1,6.998407841E0,1.551805305E1,1.528714561E1
3.968267433E1,1.333340645E1,2.205344963E1,1.005165005E1
3.970191402E1,1.699921036E1,2.521735954E1,1.006660461E1
3.972115360E1,1.684247971E1,2.200080872E1,1.719482422E1
3.974039329E1,1.296550941E1,1.460638809E1,2.179801559E1
3.975963298E1,9.306883812E0,6.266802311E0,2.430629158E1
3.977887266E1,6.829115868E0,-3.726821244E-1,2.313859558E1
3.979811235E1,3.671188116E0,-2.484946251E0,1.626640892E1
3.981735204E1,9.092726111E-1,-2.595016241E0,8.388637543E0
3.983659173E1,-1.464407444E0,-2.143370867E0,1.032503009E0
3.985583141E1,-2.561516523E0,-1.928615093E0,-2.670988321E0
3.987507110E1,-1.044467092E0,-3.918845177E0,-4.426721931E-1
3.989431079E1,1.103091240E0,-7.049853802E0,3.918246984E0
3.991355048E1,3.702893019E0,-8.699107170E0,7.464410305E0
3.993279016E1,7.439285755E0,-9.064012527E0,7.655836105E0
3.995202985E1,1.017846966E1,-9.172286987E0,5.130211830E0
3.997126954E1,1.164646626E1,-9.489336014E0,7.399803996E-1
3.999050923E1,1.160279655E1,-8.286943436E0,-3.120838881E0
4.000974891E1,1.219801140E1,-8.216354370E0,-3.626920938E0
4.002898860E1,1.331067371E1,-8.940183640E0,-6.011967063E-1
4.004822829E1,1.688914108E1,-8.082955360E0,1.353739381E0
4.006746798E1,1.520578957E1,-7.044469833E0,4.316053867E0
4.008670766E1,1.224048424E1,-1.130608654E1,2.681576538E1
4.010594735E1,4.887340069E0,-1.169910812E1,5.980561066E1
4.012518704E1,-4.727619171E0,-3.848855257E0,5.853382492E1
4.014442672E1,-7.574480057E0,7.211967468E0,3.537907791E1
4.016366641E1,-5.078167915E0,1.263888931E1,2.127757645E1
4.018290610E1,-2.425125837E0,1.307677555E1,1.591286850E1
4.020214579E1,2.831905603E0,1.233440208E1,1.604985809E1
4.022138548E1,5.243870735E0,1.215912819E1,1.424507141E1
4.024062516E1,3.480360508E0,1.117567825E1,1.149990559E1
4.025986485E1,-8.524430394E-1,9.402596474E0,8.641678810E0
4.027910454E1,-4.967499733E0,7.749155998E0,7.467999458E0
4.029834422E1,-7.935198307E0,6.639484406E0,8.682356834E0
4.031758381E1,-1.065224838E1,6.963113785E0,9.098708153E0
4.033682350E1,-1.206341553E1,8.198408127E0,8.127222061E0
4.035606318E1,-1.321256828E1,9.831509590E0,7.479365349E0
4.037530287E1,-1.406620789E1,1.070788097E1,8.362915039E0
4.039454256E1,-1.182174015E1,1.088435173E1,1.102313614E1
4.041378224E1,-7.267600536E0,9.424132347E0,1.556830215E1
4.043302193E1,-2.124826431E0,7.339983463E0,1.935793495E1
4.045226162E1,1.244267821E0,8.882756233E0,2.080738831E1
4.047150131E1,7.737192154E0,1.193659592E1,2.223889351E1
4.049074100E1,1.462672615E1,1.251745319E1,2.541955376E1
