"Time (s)","Gyroscope x (rad/s)","Gyroscope y (rad/s)","Gyroscope z (rad/s)"
2.804792200E-2,-2.732092738E-1,-1.078329086E0,-3.542252183E-1
4.728802700E-2,-5.447386503E-1,-1.409112334E0,-3.673588037E-1
6.652813100E-2,-7.959567904E-1,-1.590233684E0,-3.134499788E-1
8.576823500E-2,-9.472985864E-1,-1.497382283E0,-2.190713882E-1
1.050083390E-1,-9.353867173E-1,-1.419497013E0,-1.761581302E-1
1.242484430E-1,-7.916807532E-1,-1.491579056E0,-1.966221035E-1
1.434885470E-1,-6.606502533E-1,-1.415373683E0,-2.390772104E-1
1.627286520E-1,-6.065887213E-1,-1.448054910E0,-1.535561383E-1
1.819687560E-1,-6.009382010E-1,-1.620624304E0,-1.290451828E-2
2.012088600E-1,-5.555815101E-1,-1.730732679E0,-2.817613818E-2
2.204489640E-1,-4.173733592E-1,-1.674838543E0,-1.297324002E-1
2.396890680E-1,-3.695732057E-1,-1.234863162E0,-2.176969349E-1
2.589291720E-1,-4.622719288E-1,-6.333140731E-1,-2.500727773E-1
2.781692770E-1,-4.659371078E-1,-4.900662601E-1,-6.971494108E-2
2.974093810E-1,-2.806923687E-1,-6.650790572E-1,1.983019859E-1
3.166494850E-1,1.252272818E-2,-1.044426084E0,3.265835941E-1
3.358895890E-1,2.434296161E-1,-1.449582100E0,4.058432877E-1
3.551296930E-1,3.570504785E-1,-1.638033867E0,4.835758209E-1
3.743697970E-1,2.160934210E-1,-1.494022489E0,4.029416740E-1
3.936099020E-1,-2.266308367E-1,-1.395367861E0,3.169624507E-1
4.128500060E-1,-6.177369952E-1,-1.415220976E0,3.207803667E-1
4.320901100E-1,-7.886264324E-1,-1.153159976E0,2.749654949E-1
4.513302140E-1,-6.099484563E-1,-5.820014477E-1,3.197113574E-1
4.705703180E-1,-1.443168074E-1,-1.372918636E-1,5.022072196E-1
4.898104220E-1,2.816086709E-1,5.383245945E-1,7.129555345E-1
5.090505270E-1,5.734493136E-1,1.121547699E0,8.881210089E-1
5.282906310E-1,6.203331947E-1,1.876576662E0,1.084972262E0
5.475307350E-1,1.849393100E-1,2.114508390E0,1.126205564E0
5.667708390E-1,-5.836812854E-1,1.436295867E0,1.080696106E0
5.860109430E-1,-7.692314982E-1,8.807142973E-1,1.123151302E0
6.052510470E-1,-8.698714375E-1,5.742128938E-2,1.096731305E0
6.244911520E-1,-8.778126836E-1,-8.265000582E-1,1.117806196E0
6.437312560E-1,-5.079340935E-1,-5.667297840E-1,1.207603335E0
6.629713600E-1,-1.687513888E-1,8.811724186E-2,1.115210056E0
6.822114640E-1,-3.126100600E-1,-1.670715213E-1,1.052901864E0
7.014515680E-1,-7.869465351E-1,8.170316368E-2,1.108948708E0
7.206916720E-1,-7.142536640E-1,7.348703146E-1,1.183321476E0
7.399317770E-1,-6.026180983E-1,4.778489769E-1,1.136895657E0
7.591718810E-1,-4.134027362E-1,7.223476171E-1,1.257846951E0
7.784119850E-1,-3.660607338E-1,7.591522336E-1,1.359250546E0
7.976520890E-1,-3.051269650E-1,4.037816226E-1,1.556865215E0
8.168921930E-1,-1.174387559E-1,5.406153202E-1,1.649869442E0
8.361321930E-1,-1.227838174E-1,9.593631625E-1,1.405828953E0
8.553722970E-1,-1.950185746E-1,1.043204308E0,1.072907686E0
8.746124020E-1,-4.245510325E-2,1.294269800E0,8.662826419E-1
8.938525060E-1,1.440113783E-1,1.265559077E0,6.706531644E-1
9.130926100E-1,1.131627038E-1,9.251546860E-1,3.421606421E-1
9.323327140E-1,4.260781780E-2,4.610501826E-1,9.796743840E-2
9.515728180E-1,1.757763475E-1,1.983783394E-1,9.277509153E-2
9.708129220E-1,2.170097083E-1,2.496909797E-1,2.222784162E-1
9.900530270E-1,1.496618707E-2,3.856084049E-1,2.138790339E-1
1.009293131E0,-2.215912044E-1,2.776380479E-1,1.150716543E-1
1.028533235E0,-6.032289565E-2,8.063415438E-2,3.199404106E-2
1.047773339E0,3.100138903E-1,-1.241582632E-1,2.145662531E-2
1.067013443E0,6.159043908E-1,-3.532325625E-1,1.376736462E-1
1.086253547E0,6.554579139E-1,-4.729620516E-1,2.007454336E-1
1.105493547E0,5.474875569E-1,-3.532325625E-1,1.312595755E-1
1.124733652E0,3.132209182E-1,-4.720457494E-1,8.254310489E-2
1.143973756E0,-1.802051067E-2,-5.303833485E-1,1.540142894E-1
1.163213860E0,-3.043633699E-1,7.589995116E-2,1.733328775E-2
1.182453964E0,-8.474221826E-1,5.758927464E-1,-2.677878439E-1
1.201694068E0,-1.577863693E0,3.793470263E-1,-3.820195496E-1
1.220934589E0,-2.177427530E0,-5.064069033E-1,-5.449677706E-1
1.240174277E0,-2.387717724E0,-1.407127023E0,-8.641445637E-1
1.259414381E0,-2.261116028E0,-1.843895316E0,-1.178892612E0
1.278654485E0,-2.084117889E0,-1.586568594E0,-1.472565889E0
1.297894589E0,-1.806785345E0,-8.510873318E-1,-1.499902129E0
1.317134589E0,-1.425452948E0,-3.376555145E-1,-1.205312610E0
1.336374693E0,-1.080161691E0,-5.572614074E-1,-1.183626890E0
1.355614797E0,-6.638572812E-1,-1.089630008E0,-1.403079987E0
1.374854902E0,-2.257145345E-1,-1.734092355E0,-1.534568667E0
1.394095006E0,1.634063274E-1,-2.364504814E0,-1.598251343E0
1.413335110E0,6.120865345E-1,-2.288604975E0,-1.546327829E0
1.432575214E0,9.747874737E-1,-1.374598503E0,-1.163926482E0
1.451815318E0,1.048702121E0,-5.002982616E-1,-5.451204777E-1
1.471055422E0,9.604321718E-1,-1.404988952E-2,3.535379842E-2
1.490295422E0,1.036026716E0,1.568395346E-1,2.964984775E-1
1.509535527E0,1.418428063E0,3.136790693E-1,3.591121435E-1
1.528775631E0,1.719889760E0,1.111773849E0,5.933787823E-1
1.548015735E0,1.642004490E0,1.663079381E0,9.623411298E-1
1.567255839E0,1.374293089E0,1.630550861E0,1.276478291E0
1.586495943E0,1.251967311E0,9.578359723E-1,1.436830282E0
1.605736047E0,1.752418280E0,5.129737258E-1,1.375285745E0
1.624976152E0,2.632063627E0,9.250019789E-1,1.258763194E0
1.644216152E0,3.484220028E0,1.739742875E0,1.208061457E0
1.663456256E0,3.459174633E0,1.373224020E0,9.214131832E-1
1.682696360E0,3.118617296E0,6.484329700E-1,3.937787116E-1
1.701936464E0,3.205665588E0,1.339779139E0,-3.901898861E-2
1.721176568E0,2.867246628E0,2.349996805E0,-2.303723842E-1
1.740416672E0,2.245997190E0,2.706436396E0,-1.095738709E-1
1.759656672E0,2.010814190E0,2.253632784E0,1.815031916E-1
1.778896777E0,2.167806387E0,1.580459952E0,4.573086500E-1
1.798136881E0,1.881463528E0,8.930842876E-1,4.690677822E-1
1.817376985E0,7.817541957E-1,2.411388755E-1,1.350774765E-1
1.836617089E0,-7.441860437E-1,-2.658788860E-1,-1.520289779E-1
1.855857193E0,-1.718515396E0,-5.137372613E-1,-7.673988491E-2
1.875097297E0,-1.714697480E0,-5.623010397E-1,1.616500914E-1
1.894337402E0,-1.131932378E0,-6.365211010E-1,2.073122412E-1
1.913577402E0,-5.516108871E-1,-1.020907760E0,-7.254019380E-3
1.932817506E0,5.681042373E-2,-1.633910537E0,-3.862956166E-1
1.952057610E0,9.272927642E-1,-1.800829411E0,-7.415134907E-1
1.971297714E0,1.630398154E0,-1.476765633E0,-9.641736746E-1
1.990537818E0,1.558010578E0,-9.669989347E-1,-9.789871573E-1
2.009777922E0,4.309650958E-1,-1.306028843E0,-1.036408424E0
2.029017922E0,-2.452622056E-1,-1.571907759E0,-8.329904675E-1
2.048258027E0,-3.811796308E-1,-2.061515808E0,-5.588648915E-1
2.067498131E0,3.298669681E-2,-1.868940830E0,-4.692205191E-1
2.086738235E0,5.690205693E-1,-1.043357015E0,-4.452440739E-1
2.105978339E0,7.730493546E-1,-8.819360137E-1,-4.304305911E-1
2.125218443E0,5.636754632E-1,-1.476307511E0,-4.698313773E-1
2.144458443E0,1.099556610E-1,-1.693622589E0,-4.539488852E-1
2.163698547E0,-2.211330533E-1,-7.982475758E-1,-2.433532625E-1
2.182938652E0,-4.526508152E-1,4.834994674E-1,8.865175396E-2
2.202178756E0,-6.369792223E-1,1.238681078E0,3.204749227E-1
2.221418860E0,-7.762564421E-1,1.567173600E0,3.220020831E-1
2.240658964E0,-8.874338269E-1,1.977369308E0,2.027307451E-1
2.259899068E0,-7.999274135E-1,2.417039156E0,3.048978746E-1
2.279139068E0,-4.596757591E-1,2.652374983E0,5.866592526E-1
2.298379172E0,8.704823256E-2,2.568381071E0,6.356811523E-1
2.317619277E0,8.651372194E-1,2.430478334E0,5.245037675E-1
2.336859381E0,1.606879830E0,2.010661364E0,5.843685269E-1
2.356099485E0,1.534645081E0,1.282663345E0,4.515054226E-1
2.375339485E0,1.023503900E0,1.555261731E0,1.870009750E-1
2.394579589E0,2.570213675E-1,2.083659649E0,3.840812296E-2
2.413819693E0,-1.522580534E-1,2.347095251E0,3.354411125E-1
2.433059797E0,-2.293797284E-1,2.360534191E0,9.337831736E-1
2.452299902E0,-5.166388750E-1,2.053880215E0,1.306410670E0
2.471540006E0,-9.767727852E-1,1.838244796E0,1.252807260E0
2.490780006E0,-1.413235664E0,1.484095931E0,1.005559802E0
2.510020110E0,-1.833205223E0,8.973603845E-1,1.028619885E0
2.529260214E0,-2.065639257E0,2.863428593E-1,1.197065949E0
2.548500318E0,-1.848782301E0,-2.727511227E-1,1.057636023E0
2.567740422E0,-1.506392598E0,-1.006857872E0,6.645445228E-1
2.586980527E0,-5.638281703E-1,-1.215926290E0,2.480874658E-1
2.606220527E0,3.515526950E-1,-1.211039424E0,-4.208094776E-1
2.625460631E0,7.783944607E-1,-1.635743141E0,-1.059774041E0
2.644700735E0,1.136361241E0,-2.627787590E0,-1.473024011E0
2.663940839E0,7.619010806E-1,-4.756803989E0,-2.172922373E0
2.683180943E0,-4.882336855E-1,-6.055502415E0,-2.676427603E0
2.702420943E0,-2.651153088E0,-6.101317406E0,-2.536997795E0
2.721661047E0,-4.262156487E0,-4.430144310E0,-2.028758287E0
2.740901152E0,-4.127766132E0,-2.772257090E0,-1.712483048E0
2.760141256E0,-2.942993879E0,-2.499200583E0,-1.376049280E0
2.779381360E0,-1.696524262E0,-2.390772104E0,-1.077183723E0
2.798621464E0,-7.383828163E-1,-2.481790781E0,-8.441387415E-1
2.817861464E0,1.412624866E-1,-2.430172920E0,-5.920043588E-1
2.837101568E0,7.466294765E-1,-2.123671293E0,-3.371210098E-1
2.856341672E0,7.124210596E-1,-1.238222957E0,-1.807396114E-1
2.875581777E0,3.817904973E-3,1.146898642E-1,-4.635699987E-1
2.894821881E0,-6.809614897E-1,1.775020361E0,-6.578249931E-1
2.914061881E0,-7.722858191E-1,3.187492371E0,-3.649153411E-1
2.933301985E0,-2.443459183E-1,3.848600864E0,3.876700699E-1
2.952542089E0,7.863357067E-1,3.731772900E0,1.307479739E0
2.971782193E0,2.287230492E0,3.231322050E0,1.982027173E0
2.991022297E0,3.962221622E0,2.290742874E0,2.203465700E0
3.010262402E0,4.779406071E0,-4.276053514E-3,1.563126564E0
3.029502402E0,4.624704361E0,-1.499825716E0,4.371501207E-1
3.048742506E0,3.427715063E0,-1.063973784E0,-1.761581302E-1
3.067982610E0,1.610086799E0,8.906408548E-1,-1.146135032E-1
3.087222714E0,2.470948100E-1,2.976133108E0,3.285689056E-1
3.106462818E0,-4.453204274E-1,4.084089279E0,6.946296096E-1
3.125702818E0,-4.943423271E-1,4.028500557E0,1.145753264E0
3.144942922E0,-1.517999023E-1,3.124573231E0,1.546785951E0
3.164183027E0,4.842630625E-1,2.105345488E0,1.736764908E0
3.183423131E0,1.241888046E0,1.136055827E0,1.806556225E0
3.202663235E0,1.636812210E0,2.701549530E-1,1.392695308E0
3.221903235E0,1.592677236E0,-5.818486959E-2,7.662535310E-1
3.241143339E0,1.601687431E0,1.444695145E-1,4.134790897E-1
3.260383443E0,1.550832987E0,-1.846338809E-1,1.992946304E-2
3.279623547E0,1.588401198E0,-1.104138136E0,-6.799688339E-1
3.298863652E0,1.746309638E0,-1.953850985E0,-1.096273184E0
3.318103652E0,3.790415823E-1,-3.735743523E0,-1.489364743E0
3.337343756E0,-2.613584995E0,-5.754804134E0,-1.710345030E0
3.356583860E0,-5.958985806E0,-6.749292374E0,-7.665589452E-1
3.375823964E0,-6.811295033E0,-4.983892918E0,4.635699987E-1
3.395064068E0,-5.138442039E0,-2.217897415E0,3.946950138E-1
3.414304068E0,-2.573878765E0,-1.520900607E0,2.888626754E-1
3.433544172E0,-1.366809905E-1,-2.540128469E0,4.673879147E-1
3.452784277E0,1.522885919E0,-3.752236843E0,1.895971596E-1
3.472024381E0,2.190103054E0,-4.363559723E0,-6.879864633E-2
3.491264485E0,2.210872412E0,-3.978409529E0,6.253728271E-2
3.510504485E0,1.837786674E0,-2.536921501E0,2.714530230E-1
3.529744589E0,1.273194909E0,-7.974839807E-1,9.980003536E-2
3.548984693E0,1.028543591E0,8.301652074E-1,-8.575014025E-2
3.568224797E0,1.411708474E0,2.434754372E0,-1.402698308E-1
3.587464902E0,2.441168308E0,3.882961988E0,3.352120519E-2
3.606704902E0,3.751473427E0,4.786583900E0,5.648208261E-1
3.625945006E0,4.946019173E0,5.215258121E0,1.281823397E0
3.645185110E0,5.603615284E0,4.035372734E0,2.130314589E0
3.664425214E0,5.530769825E0,8.436042666E-1,2.221180677E0
3.683665318E0,5.505724430E0,-6.107120514E-1,1.577481985E0
3.702905318E0,4.393033981E0,-3.950767815E-1,6.317105293E-1
3.722145422E0,2.678794861E0,2.059072495E0,7.124210149E-2
3.741385527E0,1.014799118E0,4.698771954E0,-2.025780380E-1
3.760625631E0,-1.847866029E-1,5.806269646E0,-2.436586916E-1
3.779865735E0,-5.073232055E-1,5.405694962E0,1.068249792E-1
3.799105735E0,4.657844082E-2,4.347982883E0,5.446622968E-1
3.818345839E0,1.053436279E0,3.177565813E0,6.401099563E-1
3.837585943E0,1.874438524E0,2.291659117E0,4.151589870E-1
3.856826047E0,2.175747633E0,2.037234068E0,2.115882933E-1
3.876066152E0,2.342208385E0,2.432769060E0,2.850447893E-1
3.895306152E0,2.593884468E0,2.957043648E0,5.698604584E-1
3.914546256E0,3.022864342E0,3.049589634E0,8.456659317E-1
3.933786360E0,3.668395758E0,2.913672209E0,1.103145480E0
3.953026464E0,3.905716658E0,2.802800417E0,1.581147075E0
3.972266464E0,3.200167894E0,2.968650103E0,2.118708134E0
3.991506568E0,1.866039157E0,2.540586710E0,2.120388031E0
4.010746672E0,1.180038095E0,2.640615702E0,1.795713425E0
4.029986777E0,1.260824919E0,3.641365051E0,1.641775489E0
4.049226881E0,1.390328288E0,4.377304077E0,1.931936264E0
4.068466881E0,1.550985694E0,4.348441124E0,2.263330460E0
4.087706985E0,1.755319953E0,3.656789303E0,2.352822065E0
4.106947089E0,1.915824652E0,3.163668633E0,2.044946194E0
4.126187193E0,1.904676437E0,3.395339251E0,1.688201189E0
4.145427193E0,1.769675255E0,4.013687134E0,1.518533468E0
4.164667297E0,1.749364018E0,4.578279018E0,1.389030099E0
4.183907402E0,2.117257357E0,4.608516693E0,1.223180413E0
4.203147506E0,2.999193430E0,4.427547932E0,8.097776175E-1
4.222387506E0,3.642433882E0,3.362810612E0,6.515636444E-1
4.241627610E0,3.776518822E0,1.361159444E0,5.238928795E-1
4.260867714E0,4.105316639E0,5.589412451E-1,2.367864549E-1
4.280107818E0,4.346913815E0,1.750127554E0,-6.072759628E-1
4.299347818E0,3.907396555E0,3.604102135E0,-1.315879107E0
4.318587922E0,2.988350391E0,5.278940678E0,-1.084208608E0
4.337828027E0,2.013104916E0,6.080853462E0,-2.569449842E-1
4.357068131E0,1.344818830E0,5.591398239E0,3.472002745E-1
4.376308235E0,9.118683934E-1,4.242455959E0,5.051088333E-1
4.395548235E0,5.328267813E-1,3.094640970E0,3.578903973E-1
4.414788339E0,7.177661173E-3,2.731940031E0,3.187950552E-1
4.434028443E0,-8.006910086E-1,2.747669697E0,4.948768318E-1
4.453268547E0,-1.763413906E0,2.634659767E0,8.459713459E-1
4.472508547E0,-2.698647976E0,2.230114698E0,1.087262988E0
4.491748652E0,-3.297448158E0,1.823889494E0,1.138880968E0
4.510988756E0,-3.327991247E0,1.493258953E0,1.046793103E0
4.530228860E0,-3.117243052E0,9.114102721E-1,8.155808449E-1
4.549468860E0,-3.100444078E0,-1.209512278E-1,6.164389253E-1
4.568708964E0,-3.417177677E0,-1.128267288E0,6.575195789E-1
4.587949068E0,-3.913810730E0,-1.687208533E0,5.874228477E-1
4.607189068E0,-4.148382664E0,-1.773340464E0,2.871828079E-1
4.626429172E0,-3.742615700E0,-1.789070249E0,-5.115992390E-3
4.645669277E0,-2.578613043E0,-2.091142893E0,-2.599993348E-1
4.664909381E0,-9.547816515E-1,-1.789222956E0,-3.685805500E-1
4.684149381E0,6.843212843E-1,-8.310815096E-1,-5.526035428E-1
4.703389485E0,1.614515662E0,-3.840812445E-1,-6.230056882E-1
4.722629589E0,1.317024469E0,-9.254601598E-1,-6.538543701E-1
4.741869693E0,2.344193608E-1,-1.346651435E0,-7.854957581E-1
4.761109693E0,-7.304415703E-1,-1.127503633E0,-8.986584544E-1
4.780349797E0,-1.210886717E0,-6.633991599E-1,-1.033659577E0
4.799589902E0,-1.440113664E0,1.385135949E-1,-1.246698618E0
4.818829902E0,-1.608865142E0,9.897536635E-1,-1.312519312E0
4.838070006E0,-1.453094602E0,1.709352374E0,-1.045724154E0
4.857310110E0,-6.806560755E-1,2.119853497E0,-5.997928381E-1
4.876550214E0,6.455313563E-1,2.327089310E0,-2.789361179E-1
4.895790214E0,2.167500973E0,2.601825714E0,-2.817613818E-2
4.915030318E0,3.400989771E0,2.676351309E0,1.766162813E-1
4.934270422E0,4.063014507E0,2.203389168E0,3.313177824E-1
4.953510422E0,4.235583782E0,1.065042734E0,2.688568532E-1
4.972750527E0,4.219548702E0,2.854265571E-1,1.000291109E-2
4.991990631E0,4.263836384E0,6.889027357E-1,-2.541961074E-1
5.011230735E0,3.974133492E0,1.605658054E0,-4.032471180E-1
5.030470735E0,3.068221092E0,2.644128084E0,-2.877936661E-1
5.049710839E0,2.107941628E0,3.563632488E0,2.951240540E-1
5.068950943E0,1.671478748E0,3.526216984E0,1.013195634E0
5.088190943E0,1.812130332E0,2.859152555E0,1.426903725E0
5.107431047E0,2.029292822E0,2.149174929E0,1.543273449E0
5.126671152E0,1.635590434E0,1.408806920E0,1.354668975E0
5.145911152E0,3.597993553E-1,1.155756116E0,9.895246029E-1
5.165151256E0,-1.196073294E0,1.596189618E0,9.835686684E-1
5.184391360E0,-2.307847023E0,1.832594395E0,1.130787015E0
5.203631464E0,-2.891070366E0,1.362839341E0,8.591049314E-1
5.222871464E0,-2.790888548E0,4.098902643E-1,5.469530225E-1
5.242111568E0,-2.164141178E0,-1.017089844E0,2.830594778E-1
5.261351672E0,-1.510210395E0,-2.540128469E0,3.962985426E-2
5.280591672E0,-8.994984031E-1,-3.542099476E0,-1.605810821E-1
5.299831777E0,-9.987639189E-1,-3.821570158E0,-3.652207851E-1
5.319071881E0,-2.622137070E0,-4.342790604E0,-4.008036554E-1
5.338311881E0,-4.026668072E0,-4.627148151E0,-4.686096311E-1
5.357551985E0,-4.672351837E0,-4.077675343E0,-8.902590871E-1
5.376792089E0,-4.034914494E0,-2.851669550E0,-1.380172610E0
5.396032089E0,-2.699564219E0,-2.074038744E0,-1.652618289E0
5.415272193E0,-1.581834316E0,-2.424980402E0,-1.533194184E0
5.434512297E0,-1.014340997E0,-3.397477150E0,-1.489211917E0
5.453752297E0,-7.985529900E-1,-3.752084255E0,-1.436677575E0
5.472992402E0,-8.145881891E-1,-3.166264772E0,-1.333899617E0
5.492232506E0,-1.056643367E0,-1.965915561E0,-1.343826175E0
5.511472506E0,-1.483026981E0,-9.285144806E-1,-1.348254919E0
5.530712610E0,-1.881158113E0,-3.061959743E-1,-1.481728911E0
5.549952714E0,-1.976911187E0,5.300779343E-1,-1.691713691E0
5.569192714E0,-1.435379505E0,1.883296132E0,-1.782427073E0
5.588432818E0,-3.358229101E-1,3.101055145E0,-1.549534917E0
5.607672922E0,9.468404055E-1,3.487579823E0,-8.864411712E-1
5.626912922E0,2.171318769E0,3.301418781E0,-2.372446060E-1
5.646153027E0,3.371057272E0,2.725525856E0,-8.300124854E-2
5.665393027E0,4.569726467E0,2.629467487E0,-3.442986608E-1
5.684633131E0,5.171123028E0,2.032499790E0,-5.658898354E-1
5.703873235E0,4.766577721E0,8.242093325E-1,-8.264237046E-1
5.723113235E0,4.032318592E0,1.479056358E0,-9.418771267E-1
5.742353339E0,2.693913698E0,3.284772635E0,-9.501237869E-1
5.761593443E0,1.530063510E0,4.139525414E0,-5.353466272E-1
5.780833443E0,1.039691806E0,3.558439970E0,7.231111825E-2
5.800073547E0,9.520327449E-1,2.626413107E0,4.382191300E-1
5.819313652E0,1.002276421E0,1.953087449E0,6.471349001E-1
5.838553652E0,6.264418364E-1,1.665064692E0,8.343649507E-1
5.857793756E0,-2.009745091E-1,2.103665590E0,1.207297921E0
5.877033756E0,-8.683443069E-1,2.238208532E0,1.761046767E0
5.896273860E0,-1.128267288E0,1.206305265E0,1.876347542E0
5.915513964E0,-1.021213174E0,-5.287034512E-1,1.621464252E0
5.934753964E0,-8.478803039E-1,-2.261421442E0,1.379867196E0
5.953994068E0,-7.918334603E-1,-3.646557331E0,1.206686974E0
5.973234068E0,-7.504473925E-1,-4.496575832E0,9.902881384E-1
5.992474172E0,-7.973312736E-1,-4.310109138E0,5.793288946E-1
6.011714277E0,-2.395811558E0,-4.651124477E0,5.758163929E-1
6.030954277E0,-4.435794830E0,-5.038412571E0,8.743765950E-1
6.050194381E0,-5.676460743E0,-5.265959740E0,6.281980872E-1
6.069434381E0,-5.597353935E0,-4.254673004E0,-1.369100660E-1
6.088674485E0,-4.083783627E0,-2.516915560E0,-1.017929792E0
6.107914589E0,-1.883754253E0,-1.957363486E0,-1.409341455E0
6.127154589E0,2.764163166E-2,-2.903745651E0,-1.282281518E0
6.146394693E0,1.014646411E0,-3.706269264E0,-1.049847484E0
6.165634693E0,1.050382018E0,-3.319744587E0,-7.974076271E-1
6.184874797E0,1.754709035E-1,-2.193615437E0,-6.323214173E-1
6.204114902E0,-8.872811198E-1,-1.165682673E0,-5.774962902E-1
6.223354902E0,-1.384830475E0,-5.734493136E-1,-4.731911421E-1
6.242595006E0,-1.180496216E0,-4.153880477E-2,-3.282634616E-1
6.261835006E0,-5.105302334E-1,6.801979542E-1,-2.885572612E-1
6.281075110E0,2.686277926E-1,1.547778606E0,-3.870591819E-1
6.300315110E0,9.695951343E-1,2.754694700E0,-4.851029813E-1
6.319555214E0,1.492953539E0,4.241081238E0,-3.578903973E-1
6.338795318E0,2.081521749E0,4.683958530E0,6.795870606E-3
6.358035318E0,2.935816050E0,3.941757679E0,1.515708268E-1
6.377275422E0,3.509723663E0,2.481790781E0,-2.084576152E-2
6.396515422E0,3.297448158E0,-5.986474827E-2,-6.874519587E-1
6.415755527E0,2.525620461E0,-1.045036912E0,-1.992411852E0
6.434995527E0,1.547778606E0,5.703949928E-1,-2.145738840E0
6.454235631E0,7.925970554E-1,2.936732531E0,-1.298469424E0
6.473475631E0,9.514219165E-1,3.943437576E0,-6.425533891E-1
6.492715735E0,1.454621792E0,3.698480844E0,-6.310997009E-1
6.511955735E0,2.184299707E0,3.559203625E0,-4.994583130E-1
6.531195839E0,2.679863691E0,3.355022192E0,-1.717293561E-1
6.550435943E0,2.703687429E0,2.912450552E0,-1.931859925E-2
6.569675943E0,2.395353556E0,2.344957113E0,5.963567272E-2
6.588916047E0,1.820835233E0,1.829692721E0,9.980003536E-2
6.608156047E0,1.131168842E0,1.418122530E0,2.192240953E-1
6.627396152E0,8.300125003E-1,1.183245063E0,3.354411125E-1
6.646636152E0,8.567378521E-1,8.428406715E-1,3.534616232E-1
6.665876256E0,7.643445730E-1,2.241873741E-1,2.725220621E-1
6.685116256E0,4.725039005E-1,-5.619956255E-1,2.448804229E-1
6.704356360E0,1.262962967E-1,-8.900299668E-1,7.037925720E-1
6.723596360E0,-1.109635830E0,-2.119853497E0,1.928118348E0
6.742836464E0,-3.880823851E0,-4.275442600E0,3.022024393E0
6.762076464E0,-6.094903469E0,-5.791914463E0,4.346226692E0
6.781316568E0,-6.199208736E0,-5.300473690E0,4.455418587E0
6.800556568E0,-4.365850449E0,-2.320827961E0,3.133201838E0
6.819796672E0,-1.981492639E0,-9.335541129E-1,2.459418058E0
6.839036672E0,6.093376130E-2,-1.671784163E0,1.773111343E0
6.858276777E0,1.419344306E0,-1.880089045E0,7.128028274E-1
6.877516777E0,1.862526655E0,-1.661704898E0,1.503490955E-1
6.896756881E0,1.333212376E0,-1.373987556E0,-8.636100590E-2
6.915996881E0,3.969093859E-1,-1.076038361E0,-2.404516488E-1
6.935236985E0,-1.882990748E-1,-7.683151960E-1,-5.003746152E-1
6.954476985E0,-4.841103405E-2,-6.557633281E-1,-7.460949421E-1
6.973717089E0,9.043853283E-1,-5.285507441E-1,-9.177479744E-1
6.992957089E0,2.392452002E0,-3.755291104E-1,-9.814306498E-1
7.012197193E0,4.118908405E0,-2.748891478E-3,-8.291725516E-1
7.031437193E0,5.554746151E0,8.524618149E-1,-6.923388839E-1
7.050677297E0,6.257851601E0,2.042273760E0,-6.613374949E-1
7.069917297E0,6.123613834E0,3.252091408E0,-4.945713878E-1
7.089157402E0,5.468767166E0,4.879587650E0,7.735075057E-2
7.108397402E0,4.629133224E0,6.981573582E0,9.377537966E-1
7.127637402E0,4.112341881E0,7.299070358E0,1.964770198E0
7.146877506E0,4.768715858E0,4.424340725E0,2.214155674E0
7.166117506E0,6.267930984E0,3.561799765E0,1.926743865E0
7.185357610E0,7.487216949E0,5.446165085E0,9.986875653E-1
7.204597610E0,7.347939491E0,5.972577572E0,-3.980547488E-1
7.223837714E0,6.068178177E0,5.456549644E0,-1.390251875E0
7.243077714E0,4.674489975E0,5.081784248E0,-1.926896572E0
7.262317818E0,3.568366528E0,4.574308395E0,-2.129550934E0
7.281557818E0,2.546389818E0,4.148382664E0,-2.002643824E0
7.300797922E0,1.688583016E0,3.585318089E0,-1.652312875E0
7.320037922E0,1.200502038E0,2.645960808E0,-1.334663153E0
7.339277922E0,1.147051334E0,1.830456257E0,-9.947169423E-1
7.358518027E0,1.493106246E0,1.626580238E0,-4.475347996E-1
7.377758027E0,1.799913049E0,1.531437993E0,6.940951198E-2
7.396998131E0,1.685528636E0,1.061530232E0,4.725802541E-1
7.416238131E0,1.160795808E0,5.390881896E-1,1.039004683E0
7.435478235E0,3.517054021E-1,1.088866442E-1,1.574580312E0
7.454718235E0,-8.225294352E-1,-2.336557806E-1,1.948429585E0
7.473958235E0,-2.391382933E0,-9.085086584E-1,2.493931770E0
7.493198339E0,-3.816225052E0,-2.109163284E0,3.347004414E0
7.512438339E0,-3.592801094E0,-3.550956964E0,3.821341038E0
7.531678443E0,-9.025527239E-1,-2.959945202E0,3.280878305E0
7.550918443E0,2.316551924E0,-8.637627959E-1,2.427653074E0
7.570158547E0,3.403738499E0,4.570795596E-1,1.547855020E0
7.589398547E0,2.692692041E0,1.525940180E0,6.343067288E-1
7.608638547E0,1.681558013E0,2.120617151E0,1.352301836E-1
7.627878652E0,1.299614787E0,2.184757948E0,-1.897498667E-1
7.647118652E0,1.443473458E0,2.094502687E0,-3.612501621E-1
7.666358652E0,1.828165531E0,1.860235929E0,-4.033998251E-1
7.685598756E0,2.171624184E0,1.578932762E0,-4.525744319E-1
7.704838756E0,2.422842503E0,1.492495418E0,-5.497019291E-1
7.724078860E0,2.742630243E0,1.963777542E0,-6.674461365E-1
7.743318860E0,3.158323526E0,2.789208651E0,-8.978948593E-1
7.762558860E0,3.516748428E0,3.473682642E0,-1.252349138E0
7.781798964E0,3.802938700E0,4.126238823E0,-1.494251609E0
7.801038964E0,4.029263973E0,4.461297989E0,-1.372994900E0
7.820279068E0,4.357604027E0,4.548346519E0,-9.140827656E-1
7.839519068E0,4.962207317E0,3.627162457E0,5.345066893E-4
7.858759068E0,6.434849739E0,1.680336237E0,2.274707705E-1
7.877999172E0,7.358782768E0,1.707367003E-1,-1.389641047E0
7.897239172E0,5.937452793E0,6.519454122E-1,-3.074100733E0
7.916479172E0,3.533852816E0,2.670242548E0,-3.876013279E0
7.935719277E0,1.667660832E0,4.313927174E0,-3.969933748E0
7.954959277E0,6.349939108E-1,4.862941742E0,-3.292484760E0
7.974199381E0,4.048506320E-1,4.378220558E0,-2.210185051E0
7.993439381E0,5.694786906E-1,3.495215654E0,-1.305647135E0
8.012679381E0,6.116283536E-1,2.609308958E0,-7.022654414E-1
8.031919485E0,4.721984863E-1,1.808159709E0,-1.301905513E-1
8.051159485E0,3.017672002E-1,1.030681610E0,5.031235218E-1
8.070399485E0,9.621120244E-2,1.417206228E-1,1.059468627E0
8.089639589E0,-9.880737960E-2,-5.251910090E-1,1.552131057E0
8.108879589E0,-1.886045039E-1,-8.587231636E-1,1.852981925E0
8.128119589E0,-2.397644222E-1,-9.092722535E-1,1.838168502E0
8.147359693E0,-5.291616321E-1,-7.884737253E-1,1.579772711E0
8.166599693E0,-1.217148066E0,-7.980948091E-1,1.409341455E0
8.185839693E0,-2.049909592E0,-1.472947717E0,1.507232428E0
8.205079797E0,-2.791193962E0,-2.450484037E0,1.715995550E0
8.224319797E0,-3.776976824E0,-4.312705517E0,2.069075346E0
8.243559797E0,-4.218937397E0,-6.144994259E0,2.447047949E0
8.262799902E0,-3.265530348E0,-5.129584312E0,2.406578064E0
8.282039902E0,-2.090837479E0,-1.985005140E0,1.740582824E0
8.301279902E0,-1.946826100E0,3.390299529E-2,9.235512018E-1
8.320520006E0,-2.629467487E0,-5.091558099E-1,8.418480158E-1
8.339760006E0,-2.943451881E0,-2.076024055E0,7.789289355E-1
8.359000006E0,-3.142288446E0,-2.299753189E0,2.949713171E-1
8.378240006E0,-3.619832039E0,-9.961677194E-1,-1.137735695E-2
8.397480110E0,-4.144717693E0,4.395172000E-1,-2.757290900E-1
8.416720110E0,-4.356687546E0,9.201150537E-1,-5.493965149E-1
8.435960110E0,-4.019490242E0,5.539016128E-1,-5.946004987E-1
8.455200214E0,-3.119228363E0,2.587012351E-1,-6.088030934E-1
8.474440214E0,-1.876118422E0,4.021017551E-1,-6.961567998E-1
8.493680214E0,-5.876519084E-1,1.144455194E0,-9.348521829E-1
8.512920318E0,4.754055142E-1,2.410472393E0,-1.188971877E0
8.532160318E0,1.255937934E0,3.528354883E0,-1.366428137E0
8.551400318E0,1.942091823E0,3.952295065E0,-1.487532139E0
8.570640318E0,2.996749878E0,4.143648624E0,-1.563890219E0
8.589880422E0,4.115396023E0,3.936259985E0,-1.382463336E0
8.609120422E0,4.667006969E0,2.990946770E0,-1.540066481E0
8.628360422E0,4.761080265E0,2.480263710E0,-1.765170097E0
8.647600527E0,4.217563152E0,2.944062710E0,-1.564042926E0
8.666840527E0,2.518748283E0,3.315621376E0,-9.954805374E-1
8.686080527E0,9.848667383E-1,3.708407402E0,-1.234710440E-1
8.705320631E0,5.928442478E-1,3.861581802E0,5.846739411E-1
8.724560631E0,6.482802629E-1,3.681376696E0,9.267582297E-1
8.743800631E0,4.596757591E-1,2.865566730E0,7.645736337E-1
8.763040631E0,-3.344484568E-1,1.907425284E0,4.716639817E-1
8.782280735E0,-1.298393130E0,1.561064959E0,4.988474548E-1
8.801520735E0,-1.848171353E0,1.538615704E0,7.155517340E-1
8.820760735E0,-1.985921383E0,1.118493438E0,5.286270976E-1
8.840000735E0,-1.859777808E0,3.946186602E-1,-5.459604040E-2
8.859240839E0,-1.454316378E0,-2.588539422E-1,-6.146063209E-1
8.878480839E0,-8.388700485E-1,-5.166388750E-1,-1.102076411E0
8.897720839E0,-2.435823381E-1,-9.550870657E-1,-1.684383273E0
8.916960943E0,4.254673123E-1,-8.591812849E-1,-1.936975837E0
8.936200943E0,4.645626545E-1,-9.801325202E-1,-1.745622516E0
8.955440943E0,-5.383245945E-1,-1.328783631E0,-1.625282049E0
8.974680943E0,-1.840382814E0,-2.223242283E0,-1.277089238E0
8.993921047E0,-2.182161808E0,-2.022573233E0,-7.775545120E-1
9.013161047E0,-1.148883939E0,-3.978256881E-1,-1.921933293E-1
9.032401047E0,1.084284950E-2,2.541197538E-1,2.086866796E-1
9.051641047E0,3.237583339E-1,-6.769908667E-1,-1.556941569E-1
9.070881152E0,-2.290742844E-2,-1.290299177E0,-5.723039508E-1
9.090121152E0,-6.155989766E-1,-6.267472506E-1,-5.839103460E-1
9.109361152E0,-1.166751742E0,6.670643687E-1,-3.612501621E-1
9.128601152E0,-1.505781651E0,1.418275356E0,-1.289688200E-1
9.147841256E0,-1.579543591E0,1.371391416E0,-2.817613818E-2
9.167081256E0,-1.259450436E0,1.266322732E0,5.199986324E-2
9.186321256E0,-6.443096399E-1,1.568700790E0,1.523344070E-1
9.205561256E0,5.009091273E-2,1.915977359E0,2.503781915E-1
9.224801360E0,6.151408553E-1,1.828776479E0,4.544070363E-1
9.244041360E0,1.209970355E0,1.117577076E0,7.987820506E-1
9.263281360E0,1.941480994E0,-2.840521187E-2,1.136895657E0
9.282521360E0,2.168111801E0,-1.138041139E0,1.053818107E0
9.301761464E0,1.748600483E0,-1.116660833E0,5.112174749E-1
9.321001464E0,1.241277218E0,2.426660359E-1,2.158643454E-1
9.340241464E0,8.017600179E-1,1.339931846E0,6.237692833E-1
9.359481464E0,3.390299380E-1,1.490051866E0,1.445229769E0
9.378721568E0,-1.122464016E-1,8.536835313E-1,2.081140041E0
9.397961568E0,-3.280344009E-1,2.182314396E-1,1.900934815E0
9.417201568E0,-4.195113778E-1,3.588830531E-1,1.737833977E0
9.436441568E0,-8.107702732E-1,9.384410381E-1,1.812817574E0
9.455681568E0,-1.363908291E0,1.303585410E0,2.073351383E0
9.474921672E0,-1.698662281E0,1.247843981E0,2.149251461E0
9.494161672E0,-1.693011761E0,5.638281703E-1,1.805029035E0
9.513401672E0,-1.320231557E0,-1.058323234E-1,1.261817575E0
9.532641672E0,-5.086976290E-1,-2.977965772E-1,9.070578218E-1
9.551881777E0,3.707949221E-1,-5.400044918E-1,6.022363305E-1
9.571121777E0,9.376774430E-1,-1.381928802E0,1.301905513E-1
9.590361777E0,1.054963470E0,-1.819155335E0,-2.506836355E-1
9.609601777E0,5.668824911E-1,-2.513403177E0,-7.648790479E-1
9.628841881E0,-9.964731932E-1,-3.692677498E0,-1.041906238E0
9.648081881E0,-3.372584343E0,-4.106080532E0,-6.052906513E-1
9.667321881E0,-3.983143806E0,-2.962846994E0,1.935677826E-1
9.686561881E0,-3.249189854E0,-2.650695086E0,1.161406636E-1
9.705801881E0,-1.885892272E0,-2.864344835E0,-1.031597927E-1
9.725041985E0,-1.025947452E0,-2.894124508E0,-3.409388959E-1
9.744281985E0,-7.823650837E-1,-3.162752390E0,-5.690969229E-1
9.763521985E0,-7.864884138E-1,-3.246746302E0,-6.790525317E-1
9.782761985E0,-8.335250020E-1,-2.313955784E0,-7.919098139E-1
9.802002089E0,-1.157436013E0,-6.601921320E-1,-8.226057887E-1
9.821242089E0,-1.806938052E0,2.996291816E-1,-8.319214582E-1
9.840482089E0,-1.730885386E0,7.797688842E-1,-6.837867498E-1
9.859722089E0,-7.394518256E-1,1.555261731E0,-3.203222156E-1
9.878962089E0,4.103484154E-1,2.281121731E0,2.415206581E-1
9.898202193E0,1.560301304E0,2.821584463E0,1.042975307E0
9.917442193E0,2.893208265E0,3.267210245E0,1.845193386E0
9.936682193E0,4.174191952E0,3.807672977E0,2.361984968E0
9.955922193E0,5.205178738E0,4.540710449E0,3.081278324E0
9.975162297E0,5.963567257E0,4.574766159E0,4.030867577E0
9.994402297E0,6.391325474E0,3.654193163E0,4.299800873E0
1.001364230E1,6.466309071E0,2.824944258E0,3.865628719E0
1.003288230E1,5.580097198E0,2.296087980E0,3.010570765E0
1.005212230E1,3.954280376E0,1.702632904E0,2.244546175E0
1.007136240E1,2.315024853E0,2.204916477E0,1.776623845E0
1.009060240E1,6.957749724E-1,3.637394428E0,1.521587849E0
1.010984240E1,-5.936078429E-1,4.645626545E0,1.782885194E0
1.012908240E1,-1.370933294E0,4.541321278E0,2.111835957E0
1.014832240E1,-1.510515928E0,3.437641621E0,1.890092015E0
1.016756251E1,-1.046564102E0,2.262337685E0,1.150945544E0
1.018680251E1,-2.015853822E-1,1.704923630E0,4.004982114E-1
1.020604251E1,6.627882719E-1,1.634674191E0,1.336266659E-2
1.022528251E1,1.026863694E0,1.290451884E0,-3.048978746E-1
1.024452251E1,1.188437462E0,8.938478827E-1,-9.350048900E-1
1.026376261E1,1.496924162E0,7.316632867E-1,-1.513799310E0
1.028300261E1,1.749058604E0,8.836159110E-1,-1.625129342E0
1.030224261E1,1.597564101E0,1.037401080E0,-1.382310629E0
1.032148261E1,1.030376196E0,4.508182108E-1,-1.190651774E0
1.034072261E1,6.403390169E-1,-3.394880891E-1,-1.100091100E0
1.035996271E1,5.674933791E-1,-6.785180569E-1,-7.902299762E-1
1.037920271E1,3.258963525E-1,-1.071456790E0,-2.822958827E-1
1.039844271E1,6.272054315E-1,-8.420770764E-1,2.534325123E-1
1.041768271E1,1.117577076E0,-3.849975169E-1,6.491202116E-1
1.043692271E1,9.961677194E-1,-7.225003242E-1,6.610320210E-1
1.045616271E1,5.400044918E-1,-9.366084337E-1,2.485456020E-1
1.047540282E1,-4.764745384E-2,-4.205803871E-1,-1.010217592E-1
1.049464282E1,-6.093376279E-1,5.364919901E-1,-1.540142894E-1
1.051388282E1,-9.350812435E-1,1.336724877E0,-8.910989761E-2
1.053312282E1,-9.503529072E-1,1.353676319E0,2.977965865E-3
1.055236282E1,-6.180424690E-1,8.205441236E-1,1.685223281E-1
1.057160292E1,-1.145371497E-1,7.415898442E-1,1.943313628E-1
1.059084292E1,2.696968019E-1,1.285870314E0,1.674533039E-1
1.061008292E1,4.247037470E-1,2.054032803E0,3.771326542E-1
1.062932292E1,4.688387215E-1,2.297004223E0,7.705295682E-1
1.064856292E1,8.246674538E-1,1.715919137E0,1.051221967E0
1.066780292E1,1.656818032E0,7.515164018E-1,1.149418473E0
1.068704303E1,2.002109289E0,-5.937605500E-1,8.662826419E-1
1.070628303E1,1.629634500E0,-6.336194873E-1,6.475930214E-1
1.072552303E1,5.198459029E-1,4.257727563E-1,6.420952678E-1
1.074476303E1,-3.933969140E-1,1.448665857E0,8.526908755E-1
1.076400303E1,-7.249437571E-1,1.729052782E0,1.156901479E0
1.078324313E1,-1.087644696E0,1.109330416E0,1.282281518E0
1.080248313E1,-1.418428063E0,3.509418070E-1,1.077489138E0
1.082172313E1,-1.499062181E0,-3.787361458E-2,9.963968396E-1
1.084096313E1,-1.407127023E0,4.428769648E-2,1.022663951E0
1.086020313E1,-1.422704101E0,5.574141145E-1,1.160413980E0
1.087944313E1,-1.643073559E0,9.897536635E-1,1.431485295E0
1.089868313E1,-1.696524262E0,4.715875983E-1,1.675983906E0
1.091792324E1,-1.269835114E0,-6.278162599E-1,1.435914040E0
1.093716324E1,-5.367974043E-1,-1.261283040E0,8.108466268E-1
1.095640324E1,-5.024362728E-2,-1.494480729E0,8.254310489E-2
1.097564324E1,-1.145371422E-2,-1.477071047E0,-6.130791903E-1
1.099488324E1,-6.866120100E-1,-2.130085468E0,-1.150487423E0
1.101412324E1,-1.923613191E0,-4.035220146E0,-1.665293694E0
1.103336334E1,-2.447582483E0,-5.340790749E0,-2.112752199E0
1.105260334E1,-2.681696415E0,-6.160724163E0,-2.448727846E0
1.107184334E1,-2.193768024E0,-5.648208618E0,-2.328998327E0
1.109108334E1,-1.230129004E0,-4.454425812E0,-1.686979413E0
1.111032334E1,-9.155336022E-1,-3.826609612E0,-9.217185974E-1
1.112956334E1,-1.134681344E0,-3.597993612E0,-6.375137568E-1
1.114880334E1,-1.207068801E0,-3.208567142E0,-7.770963311E-1
1.116804344E1,-1.207068801E0,-2.453996420E0,-1.131856084E0
1.118728344E1,-1.328936338E0,-1.630703568E0,-1.432401538E0
1.120652344E1,-1.632994294E0,-9.173662066E-1,-1.325652957E0
1.122576344E1,-1.918115377E0,-3.610210717E-1,-8.777363300E-1
1.124500344E1,-1.945604324E0,1.527161896E-1,-3.453676701E-1
1.126424344E1,-1.626885653E0,6.388118267E-1,6.131555140E-2
1.128348344E1,-9.503529072E-1,1.514639258E0,3.048978746E-1
1.130272344E1,-1.125518382E-1,2.587928534E0,4.541015923E-1
1.132196355E1,8.298597932E-1,3.285536289E0,6.741656661E-1
1.134120355E1,2.056018114E0,3.784154654E0,1.077794552E0
1.136044355E1,3.410305262E0,4.699230194E0,1.807930708E0
1.137968396E1,4.028500557E0,4.978700638E0,2.842277527E0
1.139892355E1,3.540877581E0,2.685667038E0,3.033630848E0
1.141816355E1,3.824166298E0,2.626718581E-1,2.403829336E0
1.143740355E1,4.133569241E0,-7.263182402E-1,1.641011834E0
1.145664365E1,3.607156515E0,1.847865991E-2,1.586797595E0
1.147588365E1,2.849836826E0,1.810603261E0,1.598862171E0
1.149512365E1,2.436128855E0,3.478569508E0,1.295109749E0
1.151436365E1,2.167806387E0,4.230085850E0,1.148654819E0
1.153360365E1,1.936899543E0,4.024529934E0,9.927316308E-1
1.155284365E1,1.974009514E0,3.206734657E0,7.068468928E-1
1.157208365E1,2.066402912E0,2.392146587E0,3.134499788E-1
1.159132365E1,1.726303816E0,1.738368392E0,-1.840230078E-2
1.161056376E1,1.084285021E0,1.140789986E0,-3.149771392E-1
1.162980376E1,5.245801210E-1,6.948586702E-1,-6.624065042E-1
1.164904376E1,2.745837271E-1,2.797760665E-1,-9.624938369E-1
1.166828376E1,3.193295598E-1,-6.139190868E-2,-1.054123521E0
1.168752376E1,3.958403766E-1,-2.075413018E-1,-1.004643440E0
1.170676376E1,-1.430950761E-1,-2.617555559E-1,-1.017777085E0
1.172600376E1,-1.523344040E0,-5.314523578E-1,-1.094135165E0
1.174524376E1,-3.164279461E0,-1.003956318E0,-7.332668304E-1
1.176448376E1,-4.833314896E0,-2.554025650E0,-2.813795805E-1
1.178372386E1,-5.431809425E0,-4.149146080E0,3.713294268E-1
1.180296386E1,-3.977646112E0,-4.277122498E0,1.094287872E0
1.182220386E1,-1.897651434E0,-2.704145670E0,1.561446786E0
1.184144386E1,-9.830341339E-1,-9.356921315E-1,1.743026257E0
1.186068386E1,-9.651663303E-1,2.287688553E-1,1.552283764E0
1.187992386E1,-1.128878117E0,8.008437157E-1,1.095509648E0
1.189916386E1,-1.084285021E0,1.193171620E0,6.807324290E-1
1.191840386E1,-7.173079848E-1,1.318857074E0,4.912116528E-1
1.193764386E1,-1.519526094E-1,1.024267554E0,6.175079346E-1
1.195688396E1,4.356993139E-1,4.129445851E-1,1.035644889E0
1.197612396E1,1.028390884E0,-2.874118686E-1,1.665599227E0
1.199536396E1,1.684001446E0,-8.361211419E-1,2.306243658E0
1.201460396E1,2.545626163E0,-1.200654745E0,2.763475895E0
1.203384396E1,3.631743908E0,-1.471267819E0,3.021413565E0
1.205308396E1,4.595230103E0,-1.734550595E0,3.121900797E0
1.207232396E1,5.149590015E0,-1.821904182E0,3.151833296E0
1.209156396E1,5.556120396E0,-2.631758213E0,2.947957039E0
1.211080396E1,6.291907310E0,-3.309970856E0,2.113973856E0
1.213004407E1,6.834049702E0,-1.881921649E0,8.204677701E-1
1.214928407E1,5.801688194E0,1.987295866E0,2.172387838E-1
1.216852407E1,4.386314392E0,5.469988823E0,4.327213466E-1
1.218776407E1,4.306901932E0,6.613832951E0,5.098429918E-1
1.220700407E1,4.561174393E0,6.539001942E0,1.015486360E0
1.222624407E1,4.444041252E0,5.873617649E0,1.571526051E0
1.224548407E1,4.123184681E0,5.359880447E0,1.717217207E0
1.226472407E1,3.458563566E0,5.334987640E0,1.609857798E0
1.228396407E1,2.517984629E0,5.438223839E0,1.476078391E0
1.230320417E1,1.696218729E0,5.443416119E0,1.530750751E0
1.232244417E1,1.139720917E0,5.411040306E0,1.773569584E0
1.234168417E1,6.989820004E-1,5.188532829E0,1.820300698E0
1.236092417E1,2.014326602E-1,4.940369129E0,1.649564028E0
1.238016417E1,-4.103484154E-1,4.674795628E0,1.508912325E0
1.239940417E1,-9.944878817E-1,4.157545567E0,1.459585071E0
1.241864417E1,-1.081841469E0,3.311497927E0,1.430568933E0
1.243788417E1,-6.255255342E-1,2.636339664E0,1.254334450E0
1.245712417E1,-3.370446563E-1,2.200182199E0,9.261473417E-1
1.247636428E1,-6.603448391E-1,1.871689677E0,7.416661978E-1
1.249560428E1,-1.111163020E0,1.583056092E0,7.302125096E-1
1.251484428E1,-1.208290577E0,1.485317707E0,8.061124086E-1
1.253408428E1,-1.260977626E0,7.576250434E-1,8.387936950E-1
1.255332428E1,-1.574045777E0,-1.474933028E0,9.063705802E-2
1.257256428E1,-2.229656458E0,-3.819432020E0,-1.124220252E0
1.259180428E1,-2.805396557E0,-4.277275085E0,-1.199967504E0
1.261104428E1,-2.081827164E0,-2.627023935E0,2.606101930E-1
1.263028428E1,-7.673988938E-1,-1.183092356E0,1.683314204E0
1.264952438E1,-3.260490894E-1,-1.081688762E0,1.860617757E0
1.266876438E1,-5.138899684E-1,-1.227074623E0,1.476383805E0
1.268800438E1,-7.086031437E-1,-7.325795889E-1,1.045876861E0
1.270724438E1,-8.713986278E-1,3.162752390E-1,4.800633490E-1
1.272648438E1,-9.679152369E-1,1.192408085E0,5.093085021E-2
1.274572438E1,-8.593340516E-1,1.391549945E0,-9.262236953E-2
1.276496438E1,-3.898844421E-1,1.114217401E0,4.833467677E-2
1.278420438E1,3.153589368E-1,9.703587294E-1,2.030361742E-1
1.280344438E1,1.089477301E0,1.230892539E0,4.307360351E-1
1.282268449E1,1.680489063E0,1.468977094E0,9.003383517E-1
1.284192449E1,2.199723959E0,1.365130067E0,1.325500250E0
1.286116449E1,2.756985426E0,1.126281977E0,1.400636554E0
1.288040449E1,3.184132576E0,1.037553787E0,1.224249363E0
1.289964449E1,3.558745384E0,9.990693331E-1,1.213253856E0
1.291888449E1,3.972911835E0,5.691732764E-1,1.352989078E0
1.293812449E1,4.894554138E0,9.399681687E-1,1.435150385E0
1.295736449E1,5.164556503E0,2.396117210E0,1.297553182E0
1.297660459E1,4.183813095E0,4.395935535E0,1.550451159E0
1.299584459E1,3.388314247E0,5.869341373E0,2.408868790E0
1.301508459E1,3.395797253E0,5.550622940E0,3.539274216E0
1.303432459E1,3.718333960E0,4.115090370E0,4.303160667E0
1.305356459E1,3.952295065E0,3.114952326E0,4.398455620E0
1.307280459E1,3.321729898E0,2.861443281E0,3.613341570E0
1.309204459E1,1.754556417E0,3.385565281E0,2.533943415E0
1.311128459E1,1.670715213E-1,4.489092350E0,1.742568135E0
1.313052469E1,-1.076649189E0,5.441736221E0,1.189735532E0
1.314976469E1,-1.750127554E0,5.391950607E0,9.518036842E-1
1.316900469E1,-1.564730167E0,4.532158375E0,8.248965144E-1
1.318824469E1,-1.080619812E0,2.945742607E0,7.176897526E-1
1.320748469E1,-6.105593443E-1,5.578722358E-1,5.828413367E-1
1.322672469E1,-2.719875574E-1,-1.660330415E0,1.476002038E-1
1.324596469E1,-7.780889869E-1,-2.953531265E0,-4.733438492E-1
1.326520469E1,-2.995680809E0,-3.395186424E0,-1.469664335E0
1.328444480E1,-5.726093769E0,-4.601644516E0,-2.418031931E0
1.330368480E1,-6.506931782E0,-6.566796303E0,-2.896186352E0
1.332292480E1,-3.717723131E0,-7.394976139E0,-2.107254505E0
1.334216480E1,-5.299251676E-1,-6.130180836E0,-7.722094655E-1
1.336140480E1,-1.473711282E-1,-4.729620457E0,-3.519344628E-1
1.338064480E1,-9.749401808E-1,-3.486205339E0,-1.274951100E0
1.339988480E1,-1.687513947E0,-2.461021423E0,-2.644204617E0
1.341912490E1,-1.942244530E0,-1.770438790E0,-3.461847067E0
1.343836490E1,-1.845727921E0,-1.730121732E0,-3.682369232E0
1.345760490E1,-1.549000382E0,-2.238361359E0,-3.539732218E0
1.347684490E1,-1.300072908E0,-2.673144341E0,-3.137783289E0
1.349608490E1,-1.234099627E0,-2.550360441E0,-2.590753794E0
1.351532490E1,-1.084590435E0,-1.710574150E0,-1.998062372E0
1.353456490E1,-7.084504366E-1,-3.251327872E-1,-1.410257697E0
1.355380490E1,-8.643736690E-2,1.130405307E0,-8.618538380E-1
1.357304501E1,8.124501705E-1,2.270278931E0,-2.260963321E-1
1.359228501E1,1.782350659E0,2.597702503E0,4.818959534E-1
1.361152501E1,2.749502420E0,2.072053432E0,1.093982458E0
1.363076501E1,3.649000645E0,4.375318885E-1,1.354058146E0
1.365000501E1,4.179078579E0,-1.812741280E0,1.013806462E0
1.366924501E1,4.717250347E0,-1.869093537E0,3.740783334E-1
1.368848501E1,4.480693340E0,1.007468700E0,-6.574432552E-2
1.370772511E1,3.424660683E0,4.122420788E0,-4.046979360E-3
1.372696511E1,2.973995209E0,5.330558777E0,3.013854027E-1
1.374620511E1,2.870606422E0,4.197099209E0,8.843031526E-1
1.376544511E1,2.920391798E0,2.626565933E0,1.282434225E0
1.378468511E1,2.813795805E0,1.390175581E0,1.239368320E0
1.380392511E1,2.362519503E0,5.308414698E-1,9.238566160E-1
1.382316521E1,1.476001978E0,3.976729810E-1,6.199513674E-1
1.384240521E1,4.248564541E-1,4.728093445E-1,4.085921645E-1
1.386164521E1,-5.642863512E-1,5.196931958E-1,1.662315726E-1
1.388088521E1,-1.331379771E0,1.169347882E0,-3.047451675E-1
1.390012521E1,-1.898720503E0,2.449414968E0,-7.256309986E-1
1.391936521E1,-2.760498047E0,2.996902704E0,-1.028161764E0
1.393860521E1,-3.799731731E0,1.584888697E0,-1.323667645E0
1.395784532E1,-4.261240005E0,-1.959348798E0,-1.523573160E0
1.397708532E1,-3.798357248E0,-4.813920021E0,-2.185445070E0
1.399632532E1,-3.095862627E0,-5.001760960E0,-2.584797859E0
1.401556532E1,-3.266294003E0,-2.762788773E0,-2.304563761E0
1.403480532E1,-4.787805557E0,-2.316857338E0,-2.318766356E0
1.405404532E1,-4.786583900E0,-3.326464176E0,-2.380005598E0
1.407328542E1,-2.338237762E0,-3.288743258E0,-1.750356674E0
1.409252542E1,1.032361463E-1,-2.055712700E0,-1.187750220E0
1.411176542E1,2.220493406E-1,-2.300211430E0,-9.823469520E-1
1.413100542E1,-6.925679445E-1,-3.345095634E0,-1.565875530E0
1.415024542E1,-1.318857074E0,-3.635561705E0,-2.664057732E0
1.416948553E1,-2.083812475E0,-2.292728186E0,-3.482311010E0
1.418872553E1,-2.793790102E0,-1.852447391E-1,-3.637928724E0
1.420796553E1,-2.985448837E0,1.043967962E0,-3.770792007E0
1.422720553E1,-2.716057539E0,1.150258422E0,-3.968101263E0
1.424644553E1,-2.177274704E0,9.283617735E-1,-4.081416607E0
1.426568553E1,-1.644600749E0,7.367029190E-1,-4.121581078E0
1.428492563E1,-1.167057157E0,9.416480660E-1,-3.936947107E0
1.430416563E1,-5.671879649E-1,1.428660035E0,-3.327456713E0
1.432340563E1,1.459966749E-1,2.194073677E0,-2.316322803E0
1.434264563E1,8.318451047E-1,2.264781237E0,-1.208214164E0
1.436188563E1,1.871842384E0,1.247691274E0,-2.928332984E-1
1.438112563E1,3.159087181E0,-6.133082509E-1,4.284452796E-1
1.440036574E1,3.888765097E0,-3.662592411E0,7.767909169E-1
1.441960574E1,4.118450165E0,-5.667603493E0,1.246927753E-1
1.443884574E1,3.725206137E0,-3.230405569E0,-9.104176164E-1
1.445808574E1,1.927583814E0,2.004858255E0,-9.165262580E-1
1.447732574E1,4.233292937E-1,6.295725346E0,1.390480995E-1
1.449656584E1,1.698204130E-1,7.008298874E0,1.355432630E0
1.451580584E1,7.373138070E-1,5.159821987E0,2.520657063E0
1.453504584E1,1.679267287E0,2.785390615E0,3.030271053E0
1.455428584E1,2.156963587E0,9.326378107E-1,2.732169151E0
1.457352584E1,1.295949578E0,7.434224486E-1,2.243629932E0
1.459276594E1,-5.285507441E-1,1.760817766E0,2.020511627E0
1.461200594E1,-2.213010311E0,2.363283157E0,1.892535448E0
1.463124594E1,-2.687194109E0,2.044411659E0,1.537317634E0
1.465048594E1,-2.251647472E0,1.063820958E0,7.518981695E-1
1.466972594E1,-2.094044447E0,-1.585194170E-1,-2.451858521E-1
1.468896605E1,-2.977813005E0,-1.502727389E0,-1.177670956E0
1.470820605E1,-4.254215240E0,-2.758207083E0,-1.684841394E0
1.472744605E1,-4.763370991E0,-4.491230488E0,-1.922162414E0
1.474668605E1,-4.921279430E0,-7.093056202E0,-2.471787930E0
1.476592605E1,-5.914087296E0,-9.097303391E0,-2.775693178E0
1.478516615E1,-6.255102634E0,-8.598990440E0,-2.143142700E0
1.480440615E1,-4.693884850E0,-6.361240387E0,-1.587103009E0
1.482364615E1,-2.516304731E0,-3.314399481E0,-1.443549871E0
1.484288615E1,-2.118326426E0,-7.333431840E-1,-1.283197880E0
1.486212626E1,-2.947117090E0,-4.416552484E-1,-1.491655469E0
1.488136626E1,-2.845255375E0,-1.267391682E0,-2.086790562E0
1.490060626E1,-1.885281444E0,-1.673616767E0,-2.294026375E0
1.491984626E1,-1.043815136E0,-1.154076338E0,-2.275853157E0
1.493908626E1,-6.345357895E-1,-9.025526792E-2,-2.099771261E0
1.495832636E1,-3.268126547E-1,8.382592201E-1,-1.791590095E0
1.497756636E1,3.878991306E-1,1.701563835E0,-1.560377717E0
1.499680636E1,1.319926023E0,2.760803461E0,-1.554574490E0
1.501604636E1,1.975078583E0,3.934885502E0,-1.343215346E0
1.503528636E1,2.337321281E0,4.797579288E0,-7.526617646E-1
1.505452646E1,3.016908407E0,4.615083218E0,2.213621289E-1
1.507376646E1,4.641197681E0,3.357923746E0,1.220889568E0
1.509300646E1,6.453022957E0,1.077870846E0,1.661323071E0
1.511224646E1,7.846710682E0,5.852084756E-1,1.210657597E0
1.513148657E1,7.474541664E0,2.949866056E0,6.216312647E-1
1.515072657E1,5.696619511E0,5.290547371E0,3.154352903E-1
1.516996657E1,4.633714676E0,5.973341465E0,3.901135325E-1
1.518920657E1,4.014756203E0,4.245663166E0,7.865647674E-1
1.520844657E1,3.669312000E0,2.749502420E0,1.004796147E0
1.522768667E1,2.908479929E0,1.982561588E0,9.794453382E-1
1.524692667E1,1.584583282E0,1.345582366E0,6.034580469E-1
1.526616667E1,6.230820715E-2,1.385441303E0,1.972329617E-1
1.528540667E1,-1.516166329E0,1.989433885E0,1.288161129E-1
1.530464678E1,-2.809978008E0,2.557690859E0,3.982074857E-1
1.532388678E1,-3.305083990E0,2.295782566E0,8.051961660E-1
1.534312678E1,-2.998888016E0,1.215315461E0,9.429461360E-1
1.536236678E1,-2.462090492E0,-1.081230640E-1,8.009200692E-1
1.538160688E1,-2.197738647E0,-1.436448574E0,6.320159435E-1
1.540084688E1,-2.405127287E0,-2.863428593E0,3.975966275E-1
1.542008688E1,-2.783099890E0,-4.573697090E0,9.750928730E-2
1.543932688E1,-2.946964502E0,-6.381246090E0,-8.170315996E-3
1.545856688E1,-3.891819477E0,-8.015614510E0,3.810269013E-2
1.547780698E1,-4.920821190E0,-7.944296360E0,1.013271958E-1
1.549704698E1,-4.889208794E0,-6.256629944E0,-4.696023092E-2
1.551628698E1,-3.381289244E0,-3.734674454E0,-4.447859228E-1
1.553552698E1,-2.297767878E0,-1.761428595E0,-9.489020705E-1
1.555476709E1,-2.329838276E0,-1.518457174E0,-1.392389894E0
1.557400709E1,-2.334572554E0,-2.309679747E0,-2.049985886E0
1.559324709E1,-1.954309106E0,-2.792110205E0,-2.484463453E0
1.561248709E1,-1.677740097E0,-2.952462196E0,-2.542648315E0
1.563172719E1,-1.518609881E0,-2.722929716E0,-2.431165457E0
1.565096719E1,-1.434310555E0,-2.340833902E0,-2.149709463E0
1.567020719E1,-1.289993644E0,-2.131154537E0,-1.739819288E0
1.568944719E1,-8.802561760E-1,-1.611919403E0,-1.423544049E0
1.570868730E1,-2.573267817E-1,-3.944659233E-1,-1.263497472E0
1.572792730E1,4.227184355E-1,1.001665473E0,-1.045876861E0
1.574716730E1,1.048243999E0,2.266919136E0,-8.339067698E-1
1.576640730E1,1.609934092E0,3.218646526E0,-6.451495886E-1
1.578564740E1,2.208734274E0,3.734827280E0,-3.505600393E-1
1.580488740E1,3.019657373E0,3.635561705E0,1.337030232E-1
1.582412740E1,3.974744320E0,2.580750942E0,1.149113059E0
1.584336740E1,4.928609848E0,-4.964803457E-1,1.694767952E0
1.586260740E1,6.544499874E0,-1.827860117E0,8.641445637E-1
1.588184751E1,6.401863098E0,-2.660316229E-1,-1.431714296E-1
1.590108751E1,4.691899776E0,3.034776211E0,-2.613737583E-1
1.592032751E1,3.103498459E0,5.421272278E0,-3.951531649E-1
1.593956751E1,2.267224550E0,6.323519707E0,-6.715694666E-1
1.595880761E1,1.874591351E0,6.663465500E0,-4.049269855E-1
1.597804761E1,1.665828228E0,5.887514591E0,2.519053519E-1
1.599728761E1,1.729663610E0,4.345844746E0,6.275871992E-1
1.601652761E1,1.928194642E0,2.909701586E0,7.665589452E-1
1.603576761E1,1.866039157E0,1.801745653E0,7.787762284E-1
1.605500771E1,1.445611477E0,1.147204041E0,5.287798047E-1
1.607424771E1,1.000901937E0,8.956804872E-1,2.383136153E-1
1.609348771E1,5.187768936E-1,5.308414698E-1,1.653152853E-1
1.611272771E1,-4.886918366E-1,-2.489273995E-2,1.445458829E-1
1.613196782E1,-2.235764980E0,-5.558869243E-1,1.015562657E-2
1.615120782E1,-4.807047844E0,-1.268155336E0,-4.240165055E-1
1.617044782E1,-8.415426254E0,-3.369988203E0,-1.550756574E0
1.618968782E1,-1.050290394E1,-5.583303928E0,-2.288528442E0
1.620892792E1,-9.256739616E0,-7.539598465E0,-1.543884397E0
1.622816792E1,-3.957334757E0,-6.046186924E0,-5.038870573E-1
1.624740792E1,-3.753764033E-1,-4.637532711E0,2.925278842E-1
1.626664792E1,-4.459312856E-1,-3.940230608E0,2.994000912E-1
1.628588792E1,-1.738826632E0,-2.755610943E0,-5.926151872E-1
1.630512803E1,-2.822347879E0,-1.222493172E0,-1.735237718E0
1.632436803E1,-3.296837330E0,-3.115410358E-2,-2.287001371E0
1.634360803E1,-3.102276802E0,3.349066079E-1,-2.169715405E0
1.636284803E1,-2.557996273E0,-1.823431402E-1,-1.776318431E0
1.638208803E1,-1.798844099E0,-1.083368659E0,-1.530598044E0
1.640132813E1,-9.679152369E-1,-1.585194111E0,-1.327485561E0
1.642056813E1,-4.320341051E-1,-1.399796605E0,-9.893718958E-1
1.643980813E1,-4.050033391E-1,-5.665770769E-1,-7.389172912E-1
1.645904813E1,-3.173442483E-1,3.668242991E-1,-6.578249931E-1
1.647828824E1,6.027708054E-1,1.368031621E0,-3.210858107E-1
1.649752824E1,2.190713882E0,2.876104116E0,3.032180071E-1
1.651676824E1,3.416872263E0,3.731009245E0,1.157970548E0
1.653600824E1,3.723831654E0,1.697135091E0,2.092135429E0
1.655524824E1,3.818668365E0,-1.901469350E0,2.131230831E0
1.657448834E1,3.023017168E0,-3.199709654E0,9.368374944E-1
1.659372834E1,1.471878648E0,-1.223256707E0,5.336667299E-1
1.661296834E1,7.076868415E-1,2.490190268E0,1.003116369E0
1.663220834E1,7.649554014E-1,4.142732143E0,1.143615246E0
1.665144834E1,1.079856157E0,3.618915558E0,9.263001084E-1
1.667068844E1,1.482110620E0,2.649167776E0,7.199804783E-1
1.668992844E1,1.700189352E0,2.154978275E0,4.647917449E-1
1.670916844E1,1.609628677E0,2.021046162E0,2.479347438E-1
1.672840844E1,1.085812092E0,1.909257889E0,-4.970912263E-2
1.674764844E1,2.196058929E-1,1.432477951E0,-6.055960655E-1
1.676688855E1,-1.308777779E-1,1.092378974E0,-1.025718331E0
1.678612855E1,7.147117704E-2,9.375247359E-1,-1.281517982E0
1.680536855E1,-2.672533318E-2,1.178968996E-1,-1.640553713E0
1.682460855E1,-7.472403646E-1,-1.506087065E0,-2.279823780E0
1.684384855E1,-1.999665856E0,-3.049284220E0,-2.932990789E0
1.686308865E1,-3.386786938E0,-3.603949547E0,-3.071810007E0
1.688232865E1,-4.342637539E0,-3.346011877E0,-2.844415426E0
1.690156865E1,-5.330100536E0,-3.835009098E0,-2.572885990E0
1.692080865E1,-6.629409790E0,-5.169901371E0,-2.417726517E0
1.694004865E1,-6.716152668E0,-5.955015182E0,-2.035019636E0
1.695928865E1,-5.388590813E0,-5.033372879E0,-1.825187564E0
1.697852876E1,-5.073079109E0,-4.016283035E0,-1.931172609E0
1.699776876E1,-5.992430687E0,-3.768882990E0,-2.374813080E0
1.701700876E1,-6.240289211E0,-3.716654062E0,-2.959563494E0
1.703624876E1,-5.487856388E0,-3.168402910E0,-3.383198261E0
1.705548876E1,-4.602102757E0,-2.241262913E0,-3.630293131E0
1.707472886E1,-4.192059517E0,-1.422398686E0,-3.742081165E0
1.709396886E1,-3.983143806E0,-1.169958711E0,-3.690005064E0
1.711320886E1,-3.676489592E0,-1.504559994E0,-3.523391724E0
1.713244886E1,-3.332267284E0,-1.841299176E0,-3.327456713E0
1.715168886E1,-3.125489712E0,-1.832441568E0,-3.170311928E0
1.717092886E1,-3.246593475E0,-1.581070781E0,-3.128925800E0
1.719016886E1,-3.425882339E0,-1.393382549E0,-3.088303328E0
1.720940896E1,-3.317301273E0,-1.522427797E0,-2.966588497E0
1.722864896E1,-2.734841585E0,-1.634674191E0,-2.765155792E0
1.724788896E1,-1.776242018E0,-1.542280793E0,-2.750494957E0
1.726712896E1,-9.564615488E-1,-7.970257998E-1,-3.044321060E0
1.728636896E1,-6.621774435E-1,1.049160287E-1,-3.515145063E0
1.730560896E1,-3.428478539E-1,8.524618149E-1,-3.794462919E0
1.732484896E1,6.756164432E-1,1.490815520E0,-3.618075848E0
1.734408907E1,2.228129387E0,1.642768145E0,-3.105712891E0
1.736332907E1,3.566992044E0,9.147700071E-1,-2.495000839E0
1.738256907E1,4.798190117E0,4.442514181E-1,-1.947513223E0
1.740180907E1,5.767785072E0,1.832136154E0,-1.371773243E0
1.742104907E1,5.409054756E0,3.110370636E0,-7.774018049E-1
1.744028907E1,4.721831799E0,3.479791164E0,-1.127809063E-1
1.745952907E1,4.107913017E0,3.090975761E0,6.669879556E-1
1.747876917E1,3.033859968E0,2.409403324E0,1.285183191E0
1.749800917E1,1.281746984E0,1.997680545E0,1.577634692E0
1.751724917E1,-9.075923562E-1,1.750891209E0,1.660864949E0
1.753648917E1,-2.581514597E0,1.673922181E0,1.813886642E0
1.755572917E1,-3.682445526E0,1.304196358E0,1.911930442E0
1.757496917E1,-4.218326569E0,1.084284950E-2,1.732030749E0
1.759420917E1,-4.216799736E0,-1.826638460E0,1.202716351E0
1.761344917E1,-4.135401726E0,-3.229336739E0,5.157989264E-1
1.763268928E1,-4.107760429E0,-4.342637539E0,1.998291463E-1
1.765192928E1,-4.113716125E0,-5.577500820E0,7.261654735E-2
1.767116928E1,-4.506807804E0,-6.697216034E0,-2.063959390E-1
1.769040928E1,-5.491827011E0,-7.105426311E0,-4.620428383E-1
1.770964928E1,-6.320770741E0,-6.812058449E0,-8.438333273E-1
1.772888928E1,-5.896983147E0,-6.477457523E0,-1.188971877E0
1.774812928E1,-5.152644634E0,-5.295586586E0,-1.082070589E0
1.776736928E1,-4.661356449E0,-3.509418249E0,-9.594395161E-1
1.778660928E1,-4.108371258E0,-2.836092472E0,-8.748347163E-1
1.780584928E1,-3.242470264E0,-3.167181253E0,-6.692787409E-1
1.782508938E1,-2.393062830E0,-3.655873060E0,-6.770672202E-1
1.784432938E1,-1.946826100E0,-3.212996006E0,-9.823469520E-1
1.786356938E1,-2.178802013E0,-1.768300772E0,-1.344131589E0
1.788280938E1,-2.570671797E0,-2.489273995E-1,-1.735237718E0
1.790204938E1,-2.349691391E0,4.980075061E-1,-1.986455917E0
1.792128938E1,-1.552360177E0,1.054352641E0,-2.084194183E0
1.794052938E1,-8.895718455E-1,1.937510371E0,-2.260428667E0
1.795976938E1,-6.155989766E-1,3.202153206E0,-2.437426805E0
1.797900938E1,-5.433642268E-1,4.278038979E0,-2.518213749E0
1.799824938E1,-7.696896046E-2,5.011534691E0,-2.113515854E0
1.801748938E1,9.839504361E-1,5.311774731E0,-1.133383274E0
1.803672938E1,2.622442484E0,4.734201908E0,-2.894735336E-1
1.805596949E1,4.652193546E0,3.534616232E0,-2.552651167E-1
1.807520949E1,6.211731434E0,2.809367180E0,-5.962803960E-1
1.809444949E1,6.914683819E0,3.302487612E0,-1.155985236E0
1.811368949E1,6.456840515E0,4.814989090E0,-1.894520760E0
1.813292949E1,5.285354614E0,5.847961426E0,-1.887190342E0
1.815216948E1,4.540557861E0,5.651415348E0,-1.251432896E0
1.817140948E1,4.235125542E0,4.491841316E0,-6.185769439E-1
1.819064948E1,3.563021660E0,3.380831003E0,-4.055378437E-1
1.820988948E1,2.270126343E0,2.070373535E0,-3.510181606E-1
1.822912948E1,9.983057380E-1,1.236848474E0,-2.978729308E-1
1.824836948E1,-2.588539422E-1,1.423925757E0,-1.584430486E-1
1.826760948E1,-1.727067471E0,2.052200317E0,3.507127464E-1
1.828684948E1,-2.957654476E0,2.174525976E0,1.037477493E0
1.830608948E1,-3.542252064E0,1.504254460E0,1.542357206E0
1.832532948E1,-3.486968994E0,3.433060050E-1,1.823354959E0
1.834456948E1,-3.225671530E0,-8.758273721E-1,1.987983108E0
1.836380948E1,-3.435198069E0,-2.788139582E0,2.124816895E0
1.838304948E1,-3.914726973E0,-5.062083721E0,2.249433279E0
1.840228948E1,-3.962221622E0,-6.978213787E0,2.414824724E0
1.842152948E1,-3.948782682E0,-8.256601334E0,2.942153931E0
1.844076948E1,-3.759720087E0,-7.993165493E0,3.209559917E0
1.846000948E1,-3.132361889E0,-6.034580231E0,2.533027172E0
1.847924959E1,-2.305556297E0,-3.895026445E0,1.359555960E0
1.849848959E1,-2.421773434E0,-1.934303284E0,3.737728894E-1
1.851772959E1,-3.328602076E0,-1.159115911E0,-3.574322462E-1
1.853696959E1,-3.475362539E0,-1.360701323E0,-1.196607709E0
1.855620959E1,-2.942077398E0,-1.685834050E0,-1.772347808E0
1.857544959E1,-2.311817646E0,-1.861152291E0,-2.004781961E0
1.859468959E1,-1.668271661E0,-1.528994560E0,-2.035630465E0
1.861392959E1,-1.217911601E0,-8.578068614E-1,-1.927201986E0
1.863316959E1,-7.742711306E-1,-1.637117565E-1,-1.848858595E0
1.865240948E1,-3.145953640E-2,6.546943188E-1,-1.846262455E0
1.867164959E1,8.379537463E-1,1.679572701E0,-1.846720576E0
1.869088959E1,1.588706613E0,2.792415619E0,-1.808846951E0
1.871012959E1,2.158032656E0,3.712683439E0,-1.686673999E0
1.872936948E1,2.693760872E0,4.220617294E0,-1.385059476E0
1.874860949E1,3.467879295E0,4.511083603E0,-7.141773105E-1
1.876784959E1,4.201069832E0,4.020711899E0,4.386772811E-1
1.878708949E1,5.137830734E0,1.605963469E0,7.735838890E-1
1.880632949E1,6.436987400E0,4.940368831E-1,-2.713003159E-1
1.882556949E1,5.940201759E0,1.683543324E0,-1.200425625E0
1.884480949E1,4.876991749E0,3.983143806E0,-1.270980477E0
1.886404949E1,4.117381096E0,5.384315014E0,-1.417435408E0
1.888328949E1,3.393048525E0,5.545125008E0,-1.346269608E0
1.890252949E1,2.550818682E0,5.105607986E0,-8.441387415E-1
1.892176949E1,1.970955253E0,4.224893570E0,-3.090212345E-1
1.894100949E1,1.830609083E0,3.247051716E0,-9.659299254E-2
1.896024949E1,1.650251150E0,2.441168308E0,-5.780307949E-2
1.897948949E1,1.064737320E0,1.826943874E0,2.588539571E-2
1.899872949E1,2.609919906E-1,1.289535522E0,1.488219351E-1
1.901796949E1,-1.762344837E-1,1.128419995E0,2.334267050E-1
1.903720948E1,-4.450149834E-1,1.223562121E0,2.618319094E-1
1.905644948E1,-1.132237911E0,1.114522815E0,2.570977211E-1
1.907568948E1,-2.441015720E0,4.857902229E-1,2.772562504E-1
1.909492948E1,-4.005287647E0,-3.520108163E-1,3.659843504E-1
1.911416948E1,-6.551219463E0,-2.360534191E0,3.624718785E-1
1.913340948E1,-8.207884789E0,-5.569559574E0,2.111301422E-1
1.915264948E1,-7.797536373E0,-7.771727085E0,7.615193129E-1
1.917188948E1,-5.081326008E0,-5.651415348E0,2.041433811E0
1.919112938E1,-2.754083872E0,-2.072358847E0,2.172769547E0
1.921036938E1,-2.806923628E0,-8.042035103E-1,1.559461474E0
1.922960938E1,-3.336848974E0,-8.170316219E-1,5.635991096E-1
1.924884938E1,-3.186728954E0,-1.090851784E0,-4.440223277E-1
1.926808938E1,-2.840979338E0,-1.385441303E0,-1.127580047E0
1.928732938E1,-2.632674456E0,-1.582750678E0,-1.564959168E0
1.930656938E1,-2.545626163E0,-1.705076337E0,-1.743026257E0
1.932580938E1,-2.381914377E0,-1.889710188E0,-1.760894060E0
1.934504938E1,-1.959043384E0,-2.039524794E0,-1.710039616E0
1.936428938E1,-1.270140648E0,-1.837481260E0,-1.532736063E0
1.938352938E1,-5.638281703E-1,-1.457828760E0,-1.348560333E0
1.940276928E1,2.029598206E-1,-1.044884205E0,-1.307479739E0
1.942200928E1,1.285717607E0,-2.189950198E-1,-1.396818638E0
1.944124928E1,2.554331064E0,1.080314398E0,-1.570915103E0
1.946048928E1,3.431074858E0,1.891390085E0,-1.728976369E0
1.947972928E1,3.905869484E0,1.405141711E0,-1.788688421E0
1.949896928E1,4.041023254E0,-1.979201883E-1,-2.237368584E0
1.951820928E1,3.716806650E0,-9.225585461E-1,-2.597015142E0
1.953744928E1,2.463770390E0,2.115119249E-1,-2.273715019E0
1.955668917E1,1.118188024E0,2.518748283E0,-1.318627954E0
1.957592917E1,4.046979249E-1,4.188547134E0,-5.154935122E-1
1.959516917E1,2.655734718E-1,4.061487198E0,1.911243200E-1
1.961440917E1,9.447023869E-1,3.002858639E0,9.550107121E-1
1.963364917E1,2.073427677E0,1.974773169E0,1.507690668E0
1.965288917E1,2.678489447E0,1.514486551E0,1.664682865E0
1.967212917E1,2.268141031E0,1.420107841E0,1.586339474E0
1.969136907E1,7.736602426E-1,6.724094152E-1,1.270369649E0
1.971060907E1,-1.044578791E0,-4.370737374E-1,6.039161682E-1
1.972984907E1,-2.296698809E0,-1.069013357E0,-4.402044415E-1
1.974908907E1,-3.492772102E0,-1.454316378E0,-1.556559801E0
1.976832907E1,-4.884016514E0,-2.165515661E0,-2.156429052E0
1.978756907E1,-5.706393242E0,-3.787514448E0,-2.312199593E0
1.980680907E1,-5.924014091E0,-6.322603226E0,-2.178420067E0
1.982604896E1,-6.664229393E0,-8.285464287E0,-1.784870505E0
1.984528896E1,-7.320603371E0,-7.949641705E0,-9.838740826E-1
1.986452896E1,-7.274178028E0,-6.082227707E0,8.345939964E-2
1.988376896E1,-5.456702232E0,-4.330725670E0,3.968330324E-1
1.990300896E1,-3.957640171E0,-2.989572287E0,5.194641352E-1
1.992224896E1,-3.927249670E0,-2.393826246E0,9.201914072E-1
1.994148886E1,-4.043161392E0,-2.548985958E0,7.227293849E-1
1.996072886E1,-3.973064423E0,-2.445597172E0,2.578612864E-1
1.997996886E1,-4.122573853E0,-1.523802161E0,-1.851683855E-1
1.999920886E1,-4.289186954E0,-9.483675659E-2,-6.527853608E-1
2.001844886E1,-4.078896999E0,1.199432969E0,-9.328668714E-1
2.003768876E1,-3.298211575E0,1.949422240E0,-9.811251760E-1
2.005692876E1,-1.984088778E0,2.106567144E0,-8.985057473E-1
2.007616876E1,-3.851502538E-1,2.096487999E0,-9.919680357E-1
2.009540876E1,1.039844513E0,2.579987288E0,-1.381699800E0
2.011464876E1,1.935219646E0,2.888626814E0,-1.723173141E0
2.013388865E1,2.965901136E0,2.280510902E0,-1.833739758E0
2.015312865E1,4.423729897E0,9.845613241E-1,-1.893604517E0
2.017236865E1,6.050462723E0,8.552107215E-2,-1.991801023E0
2.019160865E1,6.675683022E0,-7.690787315E-1,-2.201022148E0
2.021084865E1,6.673544884E0,-1.263421059E0,-2.297233343E0
2.023008855E1,6.250368595E0,2.809977904E-2,-2.354196548E0
2.024932855E1,5.205789566E0,1.970497012E0,-2.456363678E0
2.026856855E1,4.493673801E0,3.644113779E0,-2.163454056E0
2.028780855E1,4.031860352E0,4.007578373E0,-1.418198943E0
2.030704844E1,3.497200966E0,3.387856007E0,-5.284743905E-1
2.032628844E1,2.622595310E0,2.774700642E0,1.928042024E-1
2.034552844E1,1.433088779E0,2.250273228E0,4.930442274E-1
2.036476844E1,3.822486401E-1,2.196516991E0,6.453022957E-1
2.038400834E1,-6.247619390E-1,2.673144341E0,8.951459527E-1
2.040324834E1,-1.809534192E0,3.031874657E0,1.168202519E0
2.042248834E1,-2.727663994E0,2.981478214E0,1.497305989E0
2.044172834E1,-3.010188818E0,2.349691391E0,1.890550137E0
2.046096824E1,-3.046840906E0,7.444914579E-1,1.822438717E0
2.048020824E1,-3.266294003E0,-1.188895583E0,1.383837819E0
2.049944824E1,-3.903273106E0,-2.888626814E0,1.237077594E0
2.051868824E1,-4.491994381E0,-4.225810051E0,1.239062905E0
2.053792813E1,-5.558564186E0,-5.196779251E0,1.121624112E0
2.055716813E1,-6.786097050E0,-5.812072754E0,1.042975307E0
2.057640813E1,-6.621926785E0,-5.112632751E0,7.851903439E-1
2.059564813E1,-5.691121578E0,-3.710239887E0,5.750528574E-1
2.061488803E1,-4.471377373E0,-2.243400812E0,8.605557680E-2
2.063412803E1,-4.046215534E0,-9.002619982E-1,-3.242928386E-1
2.065336803E1,-4.028653145E0,-5.331322551E-1,-6.187296510E-1
2.067260792E1,-3.586387157E0,-1.138346553E0,-9.976185560E-1
2.069184792E1,-2.769202709E0,-1.642157197E0,-1.322903991E0
2.071108792E1,-2.145357132E0,-1.742644548E0,-1.482034326E0
2.073032792E1,-1.908647060E0,-1.618791699E0,-1.520060658E0
2.074956782E1,-1.864359260E0,-1.486539483E0,-1.630169034E0
2.076880782E1,-1.638033867E0,-1.360090375E0,-1.766086459E0
2.078804782E1,-1.096807718E0,-8.339831233E-1,-1.794797063E0
2.080728771E1,-3.005454838E-1,1.800523996E-1,-1.854509115E0
2.082652771E1,6.333140731E-1,9.265291691E-1,-2.203923702E0
2.084576771E1,1.790291905E0,1.147814870E0,-2.452087641E0
2.086500761E1,3.075398684E0,1.486233950E0,-2.287001371E0
2.088424761E1,4.290561676E0,2.327394724E0,-1.871766090E0
2.090348761E1,5.126224518E0,2.722318888E0,-8.922443390E-1
2.092272751E1,5.245801449E0,2.086103261E-1,-1.133917719E-1
2.094196751E1,6.261211395E0,-1.642768145E0,-4.945713878E-1
2.096120751E1,6.418356419E0,-7.061597109E-1,-1.374980211E0
2.098044740E1,5.367668629E0,1.735619545E0,-1.371467829E0
2.099968740E1,4.546666622E0,3.721846342E0,-1.378950834E0
2.101892740E1,3.809047222E0,4.435183525E0,-1.498374939E0
2.103816730E1,2.908021688E0,4.986336708E0,-1.316184521E0
2.105740730E1,2.244775295E0,5.249161243E0,-9.534835815E-1
2.107664730E1,2.141844749E0,4.682431221E0,-6.601157784E-1
2.109588719E1,2.401614904E0,3.885405540E0,-3.840048611E-1
2.111512719E1,2.395811558E0,3.008356333E0,-1.653152853E-1
2.113436719E1,1.934303284E0,1.995389819E0,-1.935677826E-1
2.115360709E1,1.450803876E0,1.344971538E0,-2.630536556E-1
2.117284709E1,9.014837146E-1,8.921679854E-1,-5.318341255E-1
2.119208698E1,-1.046105921E-1,4.599811733E-1,-9.716567993E-1
2.121132699E1,-1.481805205E0,1.273653060E-1,-1.316489935E0
2.123056699E1,-2.630994558E0,5.238165334E-2,-1.081307054E0
2.124980688E1,-4.478860378E0,-7.041743994E-1,-5.348884463E-1
2.126904688E1,-6.490896225E0,-1.889404774E0,-1.836412251E-1
2.128828688E1,-7.678570271E0,-3.719250202E0,7.656426430E-1
2.130752678E1,-6.135831356E0,-5.020850182E0,2.047236919E0
2.132676678E1,-3.063181400E0,-3.627620459E0,2.544022799E0
2.134600667E1,-2.606559992E0,-1.789070249E0,2.401691198E0
2.136524667E1,-3.787056208E0,-6.937896609E-1,1.508606911E0
2.138448667E1,-4.217410564E0,7.941242307E-3,4.678460658E-1
2.140372657E1,-3.246135473E0,3.874409795E-1,3.143662810E-1
2.142296657E1,-1.798233151E0,-1.371391416E-1,5.219075680E-1
2.144220646E1,-7.773254514E-1,-6.177369952E-1,5.596284866E-1
2.146144646E1,-2.393062711E-1,-4.159989059E-1,7.694605589E-1
2.148068646E1,4.792234302E-1,-1.153007299E-1,1.247004032E0
2.149992636E1,1.792582750E0,-4.398226365E-2,1.849316716E0
2.151916636E1,3.405876637E0,6.826414168E-2,2.459112644E0
2.153840626E1,4.855153084E0,2.063195854E-1,2.938946724E0
2.155764626E1,5.995790482E0,4.880809486E-1,3.254763842E0
2.157688626E1,6.566796303E0,9.946405888E-1,3.397859097E0
2.159612615E1,6.536100388E0,1.641240954E0,3.532402039E0
2.161536615E1,6.400335789E0,1.434157729E0,3.600055218E0
2.163460605E1,6.972715855E0,-3.087921441E-1,3.053789377E0
2.165384605E1,7.815556526E0,-2.158338070E0,1.526474714E0
2.167308594E1,7.667880058E0,-1.026405573E0,-8.513928205E-2
2.169232594E1,6.174468517E0,3.326158762E0,-1.359555960E0
2.171156594E1,4.463894367E0,6.788387775E0,-2.113363028E0
2.173080584E1,3.541030407E0,7.432086468E0,-1.791284561E0
2.175004584E1,3.710698128E0,5.959138870E0,-6.785944104E-1
2.176928574E1,4.617832184E0,3.659538269E0,1.683696061E-1
2.178852574E1,5.357894897E0,1.950796723E0,2.960403562E-1
2.180776563E1,4.483289242E0,1.660941362E0,-9.292780608E-2
2.182700563E1,1.536172152E0,2.817919254E0,-8.009964228E-2
2.184624553E1,-1.530674458E0,4.118908405E0,5.996401310E-1
2.186548553E1,-3.028362036E0,4.274984360E0,1.229747176E0
2.188472542E1,-2.953378439E0,2.904356480E0,1.856494427E0
2.190396542E1,-2.322507858E0,8.234457374E-1,2.168493509E0
2.192320532E1,-2.290437460E0,-5.748237371E-1,2.262872219E0
2.194244532E1,-2.856403828E0,-5.589412451E-1,2.396346092E0
2.196168521E1,-3.158934593E0,-5.251910090E-1,2.476980209E0
2.198092521E1,-3.112967014E0,-1.710879564E0,2.316475630E0
2.200016521E1,-2.619540930E0,-3.405723810E0,2.198426008E0
2.201940511E1,-1.625663877E0,-3.857152939E0,2.237521410E0
2.203864511E1,-2.922987938E-1,-2.493244648E0,2.182543516E0
2.205788501E1,6.873756051E-1,-5.138899684E-1,1.976529360E0
2.207712490E1,9.404263496E-1,9.269872904E-1,1.704083681E0
2.209636490E1,8.819360137E-1,1.172402263E0,1.485241294E0
2.211560480E1,9.674571157E-1,4.514290690E-1,1.016097188E0
2.213484480E1,1.158199668E0,-3.060432673E-1,5.216021538E-1
2.215408469E1,1.146593213E0,-5.919279456E-1,3.073413372E-1
2.217332469E1,1.047480345E0,-5.952877402E-1,1.198822167E-2
2.219256459E1,8.526145220E-1,-2.816086709E-1,-4.846448302E-1
2.221180459E1,5.126682520E-1,4.401280880E-1,-8.303943276E-1
2.223104448E1,4.393644929E-1,1.539531946E0,-8.856775761E-1
2.225028448E1,7.929024696E-1,2.171624184E0,-9.078214169E-1
2.226952438E1,1.881310821E0,1.812893987E0,-1.182405114E0
2.228876438E1,3.294546366E0,1.254563570E0,-1.559003234E0
2.230800428E1,4.169610500E0,1.493411660E0,-1.567555428E0
2.232724428E1,4.594161510E0,1.894902587E0,-9.733366966E-1
2.234648417E1,5.654469967E0,8.176425099E-1,-4.151589870E-1
2.236572417E1,7.808837414E0,-1.063362837E0,-6.188823581E-1
2.238496407E1,9.489173889E0,-1.204625368E0,-1.802891016E0
2.240420407E1,9.029191971E0,4.095848203E-1,-2.800127745E0
2.242344396E1,7.662535191E0,2.254854679E0,-3.156720161E0
2.244268386E1,6.332376957E0,3.305694818E0,-3.108767271E0
2.246192386E1,5.092321396E0,3.591274023E0,-2.904891014E0
2.248116376E1,4.248869896E0,3.590663195E0,-2.628322124E0
2.250040376E1,3.789805174E0,3.428631306E0,-2.273562431E0
2.251964365E1,3.263239622E0,3.338070631E0,-1.848095059E0
2.253888365E1,2.318995476E0,3.632965565E0,-1.369024277E0
2.255812355E1,1.115286350E0,4.117534161E0,-7.308233380E-1
2.257736344E1,3.161225095E-2,4.387383461E0,5.795579776E-2
2.259660344E1,-8.177952170E-1,4.094626427E0,8.232166767E-1
2.261584334E1,-1.322674990E0,3.306152821E0,1.439426541E0
2.263508334E1,-1.716682792E0,2.177427530E0,1.829310894E0
2.265432324E1,-2.393979073E0,1.219896913E0,2.133979797E0
2.267356313E1,-3.493535757E0,6.896663308E-1,2.302731037E0
2.269280313E1,-4.438238144E0,2.217439115E-1,2.375118732E0
2.271204303E1,-5.396532059E0,-1.166140914E0,2.562806845E0
2.273128303E1,-6.066040039E0,-3.653429508E0,2.632903576E0
2.275052292E1,-5.058723927E0,-4.925708294E0,2.727282047E0
2.276976282E1,-3.140455723E0,-3.634492636E0,2.834183455E0
2.278900282E1,-1.989739299E0,-1.435532212E0,2.290666580E0
2.280824271E1,-2.627940178E0,7.086031139E-2,1.187597513E0
2.282748261E1,-3.834856272E0,5.499309897E-1,1.291215420E-1
2.284672261E1,-4.106233120E0,3.892735839E-1,-9.485966563E-1
2.286596251E1,-3.556607485E0,2.594648004E-1,-1.869780779E0
2.288520251E1,-2.869689941E0,9.010255337E-2,-2.349462271E0
2.290444240E1,-2.268599033E0,-2.712239623E-1,-2.452393055E0
2.292368230E1,-1.572976828E0,-7.591522336E-1,-2.387946844E0
2.294292230E1,-7.803797722E-1,-1.013577342E0,-2.378020287E0
2.296216219E1,6.383536756E-2,-7.866411209E-1,-2.591364861E0
2.298140209E1,9.601266980E-1,4.642572254E-2,-2.911458015E0
2.300064209E1,1.696829677E0,1.280678034E0,-3.021260738E0
2.301988198E1,2.087019444E0,2.236528635E0,-2.737514257E0
2.303912188E1,2.586248875E0,2.449109554E0,-2.077474833E0
2.305836188E1,3.502545834E0,1.379332662E0,-1.007697821E0
2.307760178E1,4.716792583E0,-1.339321017E0,8.697187155E-2
2.309684167E1,6.329475403E0,-2.655581951E0,2.615264952E-1
2.311608167E1,6.444928646E0,-1.788459301E0,-4.143953919E-1
2.313532157E1,5.184103966E0,2.799287736E-1,-7.315869331E-1
2.315456146E1,4.210385323E0,2.215453863E0,-1.054887176E0
2.317380146E1,3.477958679E0,3.356396437E0,-1.296484113E0
2.319304136E1,2.850447893E0,3.861734390E0,-1.186223030E0
2.321228126E1,2.410930634E0,3.741394043E0,-8.548288941E-1
2.323152126E1,2.312428713E0,3.235750675E0,-6.599630117E-1
2.325076115E1,2.331518173E0,2.702007532E0,-6.552288532E-1
2.327000105E1,2.006079912E0,2.180634499E0,-6.036107540E-1
2.328924105E1,1.200654745E0,1.839771986E0,-4.553233385E-1
2.330848094E1,2.312123179E-1,1.621540546E0,-3.691914082E-1
2.332772084E1,-6.259836555E-1,1.728441834E0,-3.194059134E-1
2.334696074E1,-1.478292823E0,1.697745919E0,-1.934150606E-1
2.336620074E1,-2.653138399E0,6.759218574E-1,3.428478539E-2
2.338544063E1,-3.876547813E0,-1.299614787E0,2.428951114E-1
2.340468053E1,-4.224282742E0,-3.550956964E0,2.519053519E-1
2.342392053E1,-3.914879560E0,-4.401280880E0,5.046506524E-1
2.344316042E1,-5.332696915E0,-5.072773933E0,9.841794968E-1
2.346240032E1,-6.394532681E0,-6.043285370E0,1.283656001E0
2.348164021E1,-5.653859138E0,-5.949059486E0,1.294956923E0
2.350088021E1,-3.636325359E0,-3.625787973E0,7.798452377E-1
2.352012011E1,-2.583499908E0,-1.278234601E0,3.882809281E-1
2.353936001E1,-2.554636478E0,-3.364337683E-1,2.603047490E-1
2.355859990E1,-2.253021955E0,-9.083559513E-1,1.260672212E-1
2.357783990E1,-1.625969291E0,-1.659414172E0,-1.168278884E-2
2.359707980E1,-1.052367330E0,-1.723402262E0,-1.362992078E-1
2.361631969E1,-7.232639194E-1,-1.153618097E0,-1.724929363E-1
2.363555969E1,-7.483093739E-1,-4.613556266E-1,-1.685223281E-1
2.365479959E1,-8.289434910E-1,-1.948658675E-1,-2.790888548E-1
2.367403948E1,-7.906117439E-1,-9.804379940E-2,-3.406334817E-1
2.369327938E1,-6.681333780E-1,1.281288862E-1,-5.347357392E-1
2.371251928E1,-2.247982323E-1,7.070759535E-1,-9.875392914E-1
2.373175928E1,4.341721535E-1,1.488066554E0,-1.621464252E0
2.375099917E1,1.032514215E0,2.149938583E0,-2.500345945E0
2.377023907E1,1.295796871E0,2.661385059E0,-3.185583353E0
2.378947896E1,1.348331332E0,1.816711903E0,-3.075169563E0
2.380871896E1,2.059530497E0,-5.145008564E-1,-2.979722023E0
2.382795886E1,3.070664644E0,-1.142011762E0,-3.665417671E0
2.384719876E1,3.188408613E0,4.181369543E-1,-4.072101116E0
2.386643865E1,2.670395374E0,2.948491573E0,-3.344561100E0
2.388567865E1,2.057239771E0,4.806131363E0,-1.836946726E0
2.390491855E1,1.614057422E0,4.854542255E0,-6.778308153E-1
2.392415844E1,1.236237645E0,3.650375128E0,-4.039343446E-2
2.394339834E1,1.027779937E0,2.213621140E0,1.795178801E-1
2.396263824E1,7.212786078E-1,1.233794093E0,1.437823027E-1
2.398187824E1,6.154462695E-2,1.166904449E0,2.635118067E-1
2.400111813E1,-6.276635528E-1,1.706145287E0,6.292670965E-1
2.402035803E1,-9.958623052E-1,1.878714681E0,7.002801299E-1
2.403959792E1,-1.080619812E0,1.235932112E0,4.496728480E-1
2.405883782E1,-1.048091292E0,9.941824526E-2,3.206276596E-1
2.407807771E1,-1.292589903E0,-7.124210596E-1,1.952476501E-1
2.409731771E1,-2.057239771E0,-1.151938200E0,-2.030361742E-1
2.411655761E1,-2.719111919E0,-9.619593024E-1,-1.054887176E0
2.413579751E1,-3.449248075E0,-1.447749585E-1,-1.831296206E0
2.415503740E1,-4.604851246E0,-2.409861535E-1,-2.455905437E0
2.417427730E1,-4.858512878E0,-1.255785227E0,-2.695669889E0
2.419351719E1,-3.735896349E0,-1.608559728E0,-2.531652689E0
2.421275719E1,-1.018311620E0,-8.408553600E-1,-1.840611935E0
2.423199709E1,1.294269800E0,-2.107483447E-1,-9.643264413E-1
2.425123699E1,1.751654744E0,-5.563451052E-1,-2.740492225E-1
2.427047688E1,1.332754254E0,-1.285717607E0,-7.460185885E-2
2.428971678E1,8.402445316E-1,-1.372613192E0,-1.143080741E-1
2.430895667E1,3.032943606E-1,-3.791943192E-1,-8.162680268E-2
2.432819657E1,-1.235474050E-1,6.627882719E-1,-1.700494885E-1
2.434743657E1,-3.448331654E-1,8.888082504E-1,-4.415788651E-1
2.436667646E1,-3.597993553E-1,6.308705807E-1,-6.478984356E-1
2.438591636E1,-3.115410507E-1,9.949460030E-1,-8.804852366E-1
2.440515626E1,-1.640172005E-1,2.004247427E0,-1.090469956E0
2.442439615E1,3.853029609E-1,2.701549530E0,-9.795980453E-1
2.444363605E1,1.123227596E0,2.363435745E0,-6.511055231E-1
2.446287594E1,1.513570189E0,1.274874806E0,-2.706894577E-1
2.448211584E1,2.179565430E0,5.661189556E-1,1.602756530E-1
2.450135584E1,2.863428593E0,1.469129771E-1,5.936841965E-1
2.452059574E1,2.299447775E0,-3.402516842E-1,5.729147792E-1
2.453983563E1,1.399491191E0,5.374082923E-1,5.174788237E-1
2.455907553E1,7.785471678E-1,1.729052782E0,5.077049732E-1
2.457831542E1,6.046034098E-1,2.207207203E0,6.143009067E-1
2.459755532E1,2.628245652E-1,1.784030557E0,1.047251344E0
2.461679521E1,-1.692095399E-1,4.616610706E-1,1.049847484E0
2.463603511E1,-8.857538924E-3,-1.461493969E-1,7.277690172E-1
2.465527501E1,3.164279461E-1,3.851502538E-1,5.478693247E-1
2.467451490E1,2.626718581E-1,1.350622058E0,5.452731848E-1
2.469375480E1,3.023780696E-2,1.610697746E0,5.640572906E-1
2.471299480E1,-1.695149690E-1,9.463822842E-1,6.265181899E-1
2.473223469E1,1.093447953E-1,1.330158114E-1,6.300306916E-1
2.475147459E1,8.817833066E-1,9.743293375E-2,4.258491099E-1
2.477071449E1,1.660788655E0,5.355756879E-1,3.539197743E-1
2.478995438E1,1.653152823E0,4.276053607E-2,4.331794977E-1
2.480919428E1,1.355050802E0,-8.823941946E-1,2.624427676E-1
2.482843417E1,1.056337953E0,-3.558287323E-1,-1.466839015E-1
2.484767407E1,-2.868010104E-1,6.759218574E-1,-1.824958436E-2
2.486691396E1,-1.321147799E0,1.054810762E0,3.925569654E-1
2.488615386E1,-1.566562772E0,-1.565341055E-1,7.073050737E-1
2.490539376E1,-8.061888218E-1,-1.131168842E0,8.861356974E-1
2.492463365E1,6.073523164E-1,-6.308705807E-1,1.276478291E0
2.494387355E1,6.875283122E-1,-2.159406990E-1,1.353600025E0
2.496311344E1,1.116355360E-1,4.860956371E-1,1.257236123E0
2.498235334E1,-4.692968726E-1,1.423925757E0,1.270827770E0
2.500159324E1,-6.217076182E-1,1.882379770E0,1.222111344E0
2.502083313E1,-3.381136656E-1,2.049909592E0,9.524145722E-1
2.504007303E1,-1.864664704E-1,2.047924280E0,8.100830317E-1
2.505931292E1,-1.916588247E-1,1.965457439E0,7.951168418E-1
2.507855282E1,-9.911280870E-2,1.801592946E0,7.132610083E-1
2.509779271E1,2.664897740E-1,1.726151109E0,5.460367799E-1
2.511703261E1,9.520327449E-1,1.969733477E0,4.912116528E-1
2.513627251E1,1.398422241E0,2.226449490E0,6.060542464E-1
2.515551240E1,1.318398952E0,1.973398685E0,6.453022957E-1
2.517475230E1,1.101083755E0,1.369711518E0,4.431060255E-1
2.519399219E1,1.239597321E0,1.223714828E0,1.715766490E-1
2.521323209E1,1.883296132E0,1.932012558E0,5.245801434E-2
2.523247198E1,2.173456907E0,2.364810228E0,2.277761996E-1
2.525171188E1,1.441488147E0,1.698051333E0,-1.078939885E-1
2.527095178E1,6.001746655E-1,9.917389750E-1,-7.477748394E-1
2.529019167E1,5.674933791E-1,1.462868452E0,-9.405027032E-1
2.530943157E1,4.732674956E-1,2.340528488E0,-5.591703653E-1
2.532867146E1,1.511890348E-2,2.924362421E0,2.216675580E-1
2.534791136E1,-6.258309484E-1,2.540892124E0,5.142717957E-1
2.536715230E1,-1.108872294E0,1.644753456E0,1.480583549E-1
2.538639115E1,-9.569196701E-1,1.300072908E0,1.251509190E-1
2.540563105E1,-1.963930279E-1,1.486081243E0,5.700132251E-1
2.542487094E1,2.852738500E-1,1.807396173E0,9.412662387E-1
2.544411084E1,7.651081681E-2,2.122449636E0,1.126510978E0
2.546335074E1,-4.004218578E-1,2.295171738E0,1.318169832E0
2.548259063E1,-7.533490062E-1,2.483012676E0,1.763337493E0
2.550183053E1,-8.823941946E-1,2.754236460E0,2.583576202E0
2.552107042E1,-9.117156863E-1,2.973536968E0,3.478798628E0
2.554031032E1,-1.019685984E0,3.012785196E0,4.109669209E0
2.555955021E1,-1.384219646E0,3.167181253E0,4.409603596E0
2.557879011E1,-1.913228512E0,3.645946503E0,4.524904728E0
2.559803001E1,-2.588539600E0,3.855473042E0,4.706636906E0
2.561726990E1,-3.326311350E0,3.463450670E0,4.507800102E0
2.563650969E1,-3.958709240E0,2.946811676E0,3.812636137E0
2.565574959E1,-3.802175045E0,2.747058868E0,3.267286539E0
2.567498948E1,-2.848462582E0,2.342819214E0,3.077460289E0
2.569422938E1,-1.640171885E0,1.639713764E0,2.717355728E0
2.571346928E1,-9.363030195E-1,5.794052482E-1,2.204229116E0
2.573270917E1,-7.675516009E-1,-7.148644924E-1,2.332816124E0
2.575194907E1,4.352411628E-2,-1.526398420E0,2.785772562E0
2.577118896E1,1.181870580E0,-2.245691538E0,3.167104721E0
2.579042886E1,2.305098295E0,-2.541655540E0,3.225594997E0
2.580966876E1,2.985754251E0,-2.158490658E0,2.954371214E0
2.582890865E1,2.349538565E0,-1.812893987E0,2.481714487E0
2.584814855E1,7.722858191E-1,-1.395215154E0,1.717675447E0
2.586738834E1,-7.270817757E-1,-1.184772253E0,1.074434757E0
2.588662824E1,-1.470809698E0,-8.784235716E-1,7.099012136E-1
2.590586813E1,-1.547015071E0,1.418733448E-1,5.826886296E-1
2.592510803E1,-1.568089843E0,1.372002244E0,7.164680362E-1
2.594434792E1,-1.444237113E0,1.999513149E0,9.713513851E-1
2.596358782E1,-1.099556565E0,2.303570986E0,1.012737393E0
2.598282771E1,-5.687150955E-1,2.689790249E0,1.045113325E0
2.600206751E1,-2.096793354E-1,3.556454659E0,1.251127481E0
2.602130740E1,4.077522457E-2,3.954585791E0,1.649411321E0
2.604054730E1,8.452841640E-1,3.057378292E0,2.047236919E0
2.605978719E1,2.024405956E0,1.509752274E0,2.217057467E0
2.607902709E1,3.241706610E0,7.994692922E-1,2.021275282E0
2.609826699E1,3.855014801E0,6.017017961E-1,1.737528563E0
2.611750688E1,4.001469612E0,5.436696485E-2,1.588324785E0
2.613674678E1,4.831329346E0,3.394880891E-1,1.560988545E0
2.615598657E1,5.537947178E0,1.328019977E0,1.504636288E0
2.617522646E1,5.306735039E0,2.396117210E0,1.476078391E0
2.619446636E1,4.543459415E0,2.600604057E0,1.572289586E0
2.621370626E1,3.862803459E0,2.111912251E0,1.544953346E0
2.623294615E1,3.454440355E0,1.773035049E0,1.516395450E0
2.625218605E1,2.889237642E0,1.900247574E0,1.804723620E0
2.627142594E1,2.056018114E0,1.883143425E0,2.000353098E0
2.629066574E1,1.158505082E0,1.730427146E0,1.663766623E0
2.630990563E1,2.313650399E-1,1.522427797E0,1.201341987E0
2.632914553E1,-6.148353815E-1,1.015868187E0,1.041600823E0
2.634838542E1,-1.179579854E0,2.034179717E-1,7.257837057E-1
2.636762532E1,-1.348789454E0,-8.182533979E-1,1.563050300E-1
2.638686511E1,-1.123838425E0,-1.642157197E0,-6.121628881E-1
2.640610501E1,-1.067180753E0,-2.000582218E0,-1.460195899E0
2.642534490E1,-1.623067737E0,-2.568533659E0,-2.047847748E0
2.644458480E1,-2.364810228E0,-3.381594658E0,-2.186819553E0
2.646382469E1,-2.906189203E0,-4.450150013E0,-2.282877922E0
2.648306448E1,-3.724137068E0,-5.673101425E0,-2.349309683E0
2.650230438E1,-4.928457260E0,-6.906742573E0,-1.949193120E0
2.652154428E1,-5.112632751E0,-6.927970409E0,-1.259832263E0
2.654078417E1,-3.824929714E0,-4.935482025E0,-1.087110281E0
2.656002407E1,-2.914741278E0,-3.171915293E0,-9.069051147E-1
2.657926386E1,-3.600895166E0,-3.150840521E0,-5.139663815E-1
2.659850376E1,-3.841881275E0,-3.978562355E0,-4.902953506E-1
2.661774365E1,-3.091739416E0,-4.683500290E0,-5.707767606E-1
2.663698355E1,-2.071289778E0,-4.506502151E0,-8.106939197E-1
2.665622344E1,-1.466686368E0,-2.940397501E0,-1.014875531E0
2.667546324E1,-1.789528370E0,-8.075632453E-1,-9.582177401E-1
2.669470313E1,-2.338848591E0,8.678861260E-1,-9.337831736E-1
2.671394303E1,-1.901927471E0,1.847255111E0,-1.160566688E0
2.673318292E1,-3.885099888E-1,2.778060198E0,-1.493029833E0
2.675242271E1,1.287702918E0,3.571420908E0,-1.441411853E0
2.677166261E1,2.412152290E0,3.692372084E0,-1.060079455E0
2.679090251E1,3.334863663E0,3.481165648E0,-7.900772095E-1
2.681014240E1,4.302778721E0,3.164584875E0,-6.178133488E-1
2.682938219E1,4.687623501E0,2.037234068E0,-5.858956575E-1
2.684862209E1,4.914254665E0,1.807243466E0,-7.002801299E-1
2.686786198E1,4.977326393E0,3.259268999E0,-6.660717130E-1
2.688710188E1,4.470308304E0,5.095376015E0,9.086613543E-3
2.690634167E1,4.165028572E0,5.794816017E0,5.283216834E-1
2.692558157E1,4.170679092E0,5.041619778E0,7.861065865E-1
2.694482146E1,4.078133106E0,4.243371964E0,9.418771267E-1
2.696406136E1,3.631285667E0,3.586234331E0,1.179350853E0
2.698330115E1,2.864039421E0,2.819446325E0,1.181336164E0
2.700254105E1,1.960570455E0,2.353662014E0,9.117920399E-1
2.702178094E1,9.482148290E-1,2.468810081E0,7.329613566E-1
2.704102074E1,-7.208204269E-2,2.812726974E0,7.526617646E-1
2.706026063E1,-1.364366531E0,2.652985811E0,9.221767187E-1
2.707950053E1,-2.840979338E0,1.630856276E0,9.102649093E-1
2.709874042E1,-3.820959091E0,7.018836141E-1,8.145118356E-1
2.711798021E1,-4.177398682E0,-2.452622056E-1,9.901354313E-1
2.713722011E1,-3.857916594E0,-2.118631840E0,8.447496295E-1
2.715646001E1,-2.945742607E0,-4.784904003E0,1.425605714E-1
2.717569980E1,-2.604880095E0,-6.341387272E0,-1.975383908E-1
2.719493969E1,-4.046978951E0,-6.200582981E0,3.596466407E-2
2.721417959E1,-5.203193665E0,-4.087907314E0,2.004400045E-1
2.723341949E1,-4.524217129E0,-1.446833253E0,-1.741728187E-1
2.725265928E1,-2.989419460E0,5.499309897E-1,-6.877573729E-1
2.727189917E1,-2.178496599E0,4.085158110E-1,-6.393463612E-1
2.729113907E1,-1.540601015E0,-1.120478749E0,-7.916043997E-1
2.731037886E1,-5.429060459E-1,-2.485455990E0,-1.007850528E0
2.732961876E1,3.718639314E-1,-2.801731348E0,-9.942587614E-1
2.734885865E1,6.907353401E-1,-2.047007799E0,-8.781944513E-1
2.736809844E1,5.998691916E-1,-9.960150123E-1,-6.184242368E-1
2.738733834E1,5.613847375E-1,-6.591231227E-1,-5.405389667E-1
2.740657824E1,8.309288025E-1,-1.334128737E0,-7.056251764E-1
2.742581803E1,1.595578790E0,-1.835190535E0,-1.131550670E0
2.744505792E1,2.454912901E0,-1.269835114E0,-1.596266031E0
2.746429782E1,2.702160358E0,-2.519817278E-2,-2.019137144E0
2.748353761E1,2.569602728E0,9.582940936E-1,-2.132605314E0
2.750277751E1,2.856251001E0,9.205732346E-1,-2.242713690E0
2.752201740E1,3.808283806E0,6.288852692E-1,-2.290055752E0
2.754125719E1,4.190532207E0,-4.734202102E-2,-1.852676511E0
2.756049709E1,3.237888813E0,-1.867108226E0,-1.839237452E0
2.757973688E1,1.614210129E0,-2.336405039E0,-2.424751282E0
2.759897678E1,-1.285870373E-1,-1.070235133E0,-2.915886641E0
2.761821667E1,-6.892082095E-1,1.216537237E0,-3.042641163E0
2.763745646E1,-2.660316229E-1,3.011410713E0,-2.641913891E0
2.765669636E1,1.131627038E-1,3.665646791E0,-1.634903193E0
2.767593626E1,3.788888752E-1,3.009425402E0,-2.929860055E-1
2.769517605E1,8.610138893E-1,1.629176378E0,6.927970052E-1
2.771441594E1,1.480125308E0,5.061014891E-1,1.007850528E0
2.773365584E1,1.568700790E0,-6.734783947E-2,1.159955859E0
2.775289563E1,1.138499260E0,-3.017672002E-1,1.405370831E0
2.777213553E1,5.881100893E-1,-5.632173419E-1,1.545106053E0
2.779137532E1,2.275471240E-1,-5.467239618E-1,1.202105522E0
2.781061521E1,-3.918697536E-1,-1.531743407E-1,5.211440325E-1
2.782985511E1,-1.689346552E0,2.428187430E-2,1.242346242E-1
2.784909490E1,-3.254382133E0,-3.645335436E-1,-1.094211563E-1
2.786833480E1,-4.341874123E0,-1.167057157E0,-3.731620312E-1
2.788757459E1,-5.508472919E0,-2.295171738E0,-3.462839723E-1
2.790681448E1,-7.078090191E0,-4.543154240E0,-8.941533417E-2
2.792605428E1,-7.166054726E0,-6.694467068E0,5.193114281E-1
2.794529417E1,-5.305971622E0,-7.806699276E0,1.795102477E0
2.796453407E1,-2.346637011E0,-6.358949661E0,2.272035122E0
2.798377386E1,-1.605658054E0,-3.701076984E0,1.731419802E0
2.800301376E1,-3.211926937E0,-1.524718523E0,1.188361049E0
2.802225355E1,-4.678002357E0,-3.633118272E-1,2.706894577E-1
2.804149344E1,-5.007869244E0,4.987711012E-1,-5.697077513E-1
2.806073334E1,-4.674031734E0,1.031750560E0,-9.434043169E-1
2.807997313E1,-3.982074738E0,7.799215913E-1,-1.015333652E0
2.809921303E1,-2.994000912E0,-4.795288667E-2,-9.348521829E-1
2.811845282E1,-1.903607368E0,-5.506945848E-1,-8.323796391E-1
2.813769271E1,-9.164499044E-1,-2.541197538E-1,-8.108466268E-1
2.815693251E1,1.588248461E-2,6.128500700E-1,-1.064202785E0
2.817617240E1,9.320269227E-1,1.977216601E0,-1.661017656E0
2.819541230E1,1.798538685E0,3.521330118E0,-2.068159103E0
2.821465209E1,2.505309105E0,4.616305351E0,-1.559155941E0
2.823389199E1,3.348149776E0,4.101040840E0,-6.268236041E-1
2.825313178E1,4.806283951E0,9.944878817E-1,-5.327504277E-1
2.827237167E1,6.507847786E0,-1.398727655E0,-1.384906769E0
2.829161146E1,6.978519440E0,2.968802750E-1,-2.127565622E0
2.831085136E1,4.970759392E0,3.284314394E0,-2.399705887E0
2.833009115E1,3.094335556E0,5.033067703E0,-2.155054569E0
2.834933105E1,2.537990332E0,4.635547161E0,-1.357112408E0
2.836857084E1,2.458730698E0,3.220937252E0,-4.518108666E-1
2.838781074E1,2.410319805E0,2.317620993E0,2.065486610E-1
2.840705053E1,2.003330946E0,1.514944673E0,5.810087919E-1
2.842629042E1,1.339779139E0,1.105512500E0,6.094139814E-1
2.844553032E1,5.335903764E-1,1.595273376E0,6.973785162E-1
2.846477011E1,-3.370446563E-1,2.419177294E0,1.118417025E0
2.848401001E1,-9.352339506E-1,2.611905098E0,1.648647666E0
2.850324980E1,-1.047022223E0,1.789070249E0,1.887953997E0
2.852248969E1,-7.811433077E-1,6.007854939E-1,1.955149055E0
2.854172948E1,-5.907062292E-1,-5.736020207E-1,1.960494161E0
2.856096938E1,-1.127350926E0,-1.899178624E0,1.848705888E0
2.858020917E1,-2.469115496E0,-2.889390469E0,1.805181742E0
2.859944907E1,-4.847059250E0,-3.999789953E0,1.958814263E0
2.861868886E1,-7.187282085E0,-5.496714115E0,1.879096389E0
2.863792876E1,-7.660549641E0,-6.284882069E0,1.618409872E0
2.865716855E1,-6.296030521E0,-5.630187988E0,1.563432097E0
2.867640844E1,-4.216188908E0,-3.503767729E0,8.905645013E-1
2.869564824E1,-3.986503601E0,-1.692706347E0,8.086322248E-2
2.871488813E1,-4.653873444E0,-1.011897564E0,-6.721803546E-1
2.873412792E1,-4.546819210E0,-1.105054379E0,-1.499902129E0
2.875336771E1,-3.762316227E0,-1.274874806E0,-1.935906887E0
2.877260761E1,-3.040579557E0,-1.540142775E0,-1.914984703E0
2.879184740E1,-2.411541462E0,-1.905745387E0,-1.771431446E0
2.881108730E1,-1.862221241E0,-2.241110086E0,-1.644829750E0
2.883032709E1,-1.447902203E0,-2.206443548E0,-1.506774306E0
2.884956699E1,-1.164461017E0,-1.418580770E0,-1.612148523E0
2.886880678E1,-6.417134404E-1,-7.192932814E-2,-1.888106704E0
2.888804667E1,4.482220411E-1,1.510210395E0,-2.130314589E0
2.890728646E1,1.630398154E0,3.160919905E0,-2.216599226E0
2.892652636E1,2.390466690E0,4.408305645E0,-1.980958104E0
2.894576615E1,3.054323912E0,4.713279724E0,-1.374369383E0
2.896500605E1,3.995971918E0,3.711308956E0,-2.227365673E-1
2.898424584E1,5.115076065E0,5.419898033E-1,6.130791903E-1
2.900348563E1,7.269901752E0,-1.309846759E0,1.642462611E-1
2.902272553E1,8.054099083E0,-1.353065521E-1,-6.294198036E-1
2.904196532E1,6.488147736E0,1.810145020E0,-6.978366375E-1
2.906120521E1,4.656164169E0,3.301265955E0,-7.254782915E-1
2.908044501E1,3.180925608E0,3.918697596E0,-9.745584130E-1
2.909968490E1,2.197433233E0,4.260476589E0,-9.095013142E-1
2.911892469E1,1.613599300E0,4.243677616E0,-5.526035428E-1
2.913816448E1,1.289688230E0,3.516748428E0,-2.384663373E-1
2.915740438E1,1.118951559E0,2.626413107E0,-9.873101860E-2
2.917664417E1,9.775363803E-1,1.983630657E0,1.369100660E-1
2.919588407E1,9.028581381E-1,1.251203775E0,5.794816017E-1
2.921512386E1,9.117156863E-1,2.864955962E-1,9.754747152E-1
2.923436376E1,9.865466356E-1,-5.815432668E-1,1.242117167E0
2.925360355E1,9.781472087E-1,-1.393382549E0,1.547091365E0
2.927284334E1,5.054906011E-1,-2.429867268E0,1.804418206E0
2.929208324E1,-3.611738086E-1,-3.297295332E0,1.945069790E0
2.931132303E1,-1.633605123E0,-3.201236963E0,2.168188095E0
2.933056282E1,-4.245357513E0,-3.244302750E0,2.609690666E0
2.934980271E1,-6.108036995E0,-3.545611858E0,3.063105106E0
2.936904251E1,-6.701797485E0,-3.868301153E0,3.417406559E0
2.938828240E1,-5.644084930E0,-3.113883257E0,3.360138178E0
2.940752219E1,-3.559509039E0,-1.743408084E0,2.693379164E0
2.942676199E1,-2.451705694E0,-9.866993427E-1,2.021122456E0
2.944600188E1,-2.317010164E0,-6.643154621E-1,1.529834509E0
2.946524167E1,-2.421926022E0,-4.491383433E-1,9.122501612E-1
2.948448157E1,-2.586554289E0,-2.325867712E-1,1.937204897E-1
2.950372136E1,-2.771798849E0,-3.665188793E-3,-5.814669132E-1
2.952296115E1,-2.937190533E0,2.724456787E-1,-1.161330342E0
2.954220105E1,-3.023475170E0,4.004218578E-1,-1.455003500E0
2.956144084E1,-2.847851515E0,5.574141070E-2,-1.598709464E0
2.958068063E1,-2.269057274E0,-8.182533979E-1,-1.597334981E0
2.959992053E1,-1.349858403E0,-1.631008983E0,-1.525863886E0
2.961916032E1,-4.187478125E-1,-1.751196623E0,-1.427972794E0
2.963840011E1,1.860083193E-1,-1.167209864E0,-1.303509116E0
2.965764001E1,6.470585465E-1,-3.200931549E-1,-1.217224479E0
2.967687980E1,1.247233152E0,4.152353406E-1,-1.322598577E0
2.969611959E1,2.090837479E0,1.236543059E0,-1.514868259E0
2.971535948E1,2.917184830E0,2.255923748E0,-1.493640780E0
2.973459928E1,3.431227446E0,3.048520565E0,-9.179006815E-1
2.975383907E1,2.790430307E0,2.987128794E-1,4.176788032E-2
2.977307896E1,2.448193312E0,-2.876104116E0,2.479347438E-1
2.979231876E1,1.708283305E0,-3.594328403E0,1.305723470E-2
2.981155855E1,1.020449638E0,-1.067333460E0,-1.156825200E-1
2.983079844E1,6.259836555E-1,1.933234334E0,-5.727620721E-1
2.985003824E1,4.040870368E-1,3.747349977E0,-1.187292099E0
2.986927803E1,3.439168632E-1,4.821250439E0,-1.298469424E0
2.988851792E1,4.922043085E-1,4.918836117E0,-9.441678524E-1
2.990775771E1,8.518509269E-1,4.127155304E0,-6.364447474E-1
2.992699751E1,1.148273110E0,3.339445114E0,-4.889208972E-1
2.994623740E1,9.575305581E-1,2.903745651E0,-2.074649483E-1
2.996547719E1,4.263836145E-1,2.628856659E0,2.897789776E-1
2.998471699E1,8.552107029E-3,2.136346817E0,7.957277298E-1
3.000395678E1,-2.275471389E-2,1.303585410E0,1.064355493E0
3.002319667E1,1.204930767E-1,2.330449075E-1,1.007850528E0
3.004243646E1,-4.550942779E-2,-7.544180155E-1,5.701659322E-1
3.006167626E1,-4.431824088E-1,-1.258076072E0,-2.427423894E-1
3.008091615E1,-7.649554014E-1,-1.063210130E0,-1.124678373E0
3.010015594E1,-1.705687165E0,-1.418428063E0,-1.864588380E0
3.011939574E1,-3.611127138E0,-2.553872824E0,-2.173075199E0
3.013863553E1,-6.060389519E0,-4.103025913E0,-2.329303741E0
3.015787542E1,-7.776766777E0,-5.531075001E0,-2.572275162E0
3.017711521E1,-8.872047424E0,-5.967232704E0,-2.186819553E0
3.019635501E1,-9.079130173E0,-5.043299675E0,-4.440223277E-1
3.021559490E1,-7.320298195E0,-4.492910385E0,9.999092817E-1
3.023483469E1,-5.031387806E0,-5.061625481E0,1.806250811E0
3.025407448E1,-3.889681578E0,-5.308567524E0,2.055330992E0
3.027331428E1,-3.943284750E0,-4.450760841E0,1.594433427E0
3.029255417E1,-4.705949306E0,-2.310748816E0,4.750237167E-1
3.031179396E1,-5.770381451E0,-1.828012913E-1,-7.030289769E-1
3.033103376E1,-6.393005371E0,3.642281294E-1,-1.495778799E0
3.035027355E1,-6.095972538E0,-2.018908113E-1,-1.818926215E0
3.036951344E1,-5.128820896E0,-8.414662480E-1,-1.869628072E0
3.038875324E1,-4.023919106E0,-1.419038892E0,-1.862450361E0
3.040799303E1,-3.210858107E0,-1.816711903E0,-1.814802885E0
3.042723282E1,-2.846477270E0,-1.693011761E0,-1.605887175E0
3.044647271E1,-2.758818150E0,-1.202487350E0,-1.383226991E0
3.046571251E1,-2.582583666E0,-7.611374855E-1,-1.501582026E0
3.048495230E1,-1.776394725E0,-5.367974043E-1,-1.821980596E0
3.050419209E1,-4.734202027E-1,-6.013963819E-1,-2.138866663E0
3.052343188E1,5.645917654E-1,-8.787289858E-1,-2.675511360E0
3.054267178E1,1.169806004E0,-8.165735006E-1,-3.589365005E0
3.056191157E1,1.550527573E0,-3.153589368E-1,-4.495277405E0
3.058115136E1,2.123060465E0,-1.687513888E-1,-4.868515968E0
3.060039115E1,2.903898478E0,-8.881973624E-1,-4.843470573E0
3.061963094E1,3.738950491E0,-1.070998669E0,-4.835987568E0
3.063887084E1,4.300640583E0,1.295033395E-1,-5.121108532E0
3.065811063E1,4.231460094E0,1.268613458E0,-5.143558025E0
3.067735042E1,4.114326954E0,1.964235663E0,-4.361956120E0
3.069659021E1,4.130972862E0,1.920100689E0,-3.183140039E0
3.071583001E1,4.143496037E0,1.726914763E0,-1.919718981E0
3.073506990E1,3.883878231E0,1.743866205E0,-5.759691000E-1
3.075430969E1,2.596328020E0,1.733481526E0,5.655844212E-1
3.077354948E1,5.496255755E-1,1.882532477E0,1.310381293E0
3.079278928E1,-1.163239241E0,2.423758745E0,1.761657715E0
3.081202907E1,-2.307389021E0,3.174817085E0,2.005239964E0
3.083126886E1,-3.353189468E0,3.168555498E0,2.089997530E0
3.085050876E1,-4.428769588E0,2.379318237E0,2.072435141E0
3.086974855E1,-5.283980370E0,1.352760077E0,1.984470606E0
3.088898834E1,-5.886903763E0,2.651153207E-1,1.859854221E0
3.090822813E1,-6.121323109E0,-1.354287267E0,1.650022149E0
3.092746792E1,-5.784889698E0,-3.286147118E0,1.289000988E0
3.094670771E1,-5.601935387E0,-4.728551388E0,9.108757377E-1
3.096594761E1,-6.803048134E0,-5.518552303E0,8.555924892E-1
3.098518740E1,-8.416647911E0,-5.426158905E0,1.275714755E0
3.100442719E1,-8.513164520E0,-5.816501617E0,1.714926481E0
3.102366699E1,-6.763036728E0,-5.812530994E0,1.920482516E0
3.104290678E1,-5.077507973E0,-4.667465210E0,1.312366605E0
3.106214657E1,-5.030624390E0,-2.460105181E0,5.121337771E-1
3.108138636E1,-5.819708824E0,-5.426006317E-1,-2.848157100E-2
3.110062626E1,-5.719221592E0,-3.688096106E-1,-2.503781915E-1
3.111986605E1,-4.392575741E0,-1.277318239E0,-2.816850245E-1
3.113910584E1,-2.698953390E0,-1.906203508E0,-3.522399068E-1
3.115834563E1,-1.785710454E0,-1.322674990E0,-8.626174331E-1
3.117758542E1,-1.998444080E0,2.646571696E-1,-1.677052855E0
3.119682521E1,-2.420704365E0,1.700036645E0,-2.496375322E0
3.121606501E1,-1.971260667E0,2.652527571E0,-3.158247232E0
3.123530490E1,-8.321505189E-1,3.055545568E0,-3.279045820E0
3.125454469E1,3.827067912E-1,3.005607367E0,-3.451615095E0
3.127378448E1,1.431714296E0,2.786765099E0,-4.066603184E0
3.129302428E1,2.156505346E0,2.969260931E0,-4.500775337E0
3.131226407E1,2.918864727E0,3.435503483E0,-4.288652420E0
3.133150386E1,4.187172413E0,3.155421972E0,-3.452073336E0
3.135074365E1,5.794205189E0,2.033110619E0,-2.675358772E0
3.136998344E1,7.343205452E0,2.114508390E0,-2.589073896E0
3.138922324E1,7.322436333E0,2.796844482E0,-2.618090153E0
3.140846303E1,6.225934029E0,3.859749079E0,-2.041433811E0
3.142770292E1,5.419286728E0,4.352716923E0,-1.062370181E0
3.144694271E1,4.785667419E0,3.641670465E0,-2.575558722E-1
3.146618251E1,3.870591879E0,2.812574148E0,2.632063627E-1
3.148542230E1,2.454912901E0,1.920100689E0,6.437751055E-1
3.150466209E1,1.039233685E0,1.109635830E0,7.204386592E-1
3.152390188E1,-8.781181276E-2,1.001971006E0,5.941423774E-1
3.154314167E1,-1.216231823E0,1.537241220E0,6.039161682E-1
3.156238146E1,-2.390924692E0,2.176663876E0,7.033344507E-1
3.158162126E1,-3.269500971E0,2.326936722E0,7.338776588E-1
3.160086105E1,-3.510639906E0,2.079383612E0,7.476221323E-1
3.162010084E1,-3.495979071E0,1.313511968E0,8.520799875E-1
3.163934063E1,-3.575849771E0,-6.520981789E-1,9.682970047E-1
3.165858042E1,-3.505600214E0,-3.265072346E0,1.099938393E0
3.167782021E1,-3.211468935E0,-5.188227177E0,1.389030099E0
3.169706011E1,-4.025293350E0,-6.360171318E0,1.996077061E0
3.171629990E1,-5.070788383E0,-6.365669250E0,2.444757223E0
3.173553969E1,-4.871341228E0,-5.143634319E0,2.555934668E0
3.175477948E1,-3.273624420E0,-2.736521482E0,2.118402719E0
3.177401928E1,-2.587470531E0,-6.207913160E-1,1.130328894E0
3.179325907E1,-3.134652615E0,1.924224049E-1,3.734674454E-1
3.181249886E1,-3.466504812E0,-4.321868420E-1,-4.557814896E-1
3.183173865E1,-3.248273373E0,-1.270140648E0,-1.263192058E0
3.185097844E1,-2.939786673E0,-1.734397769E0,-1.868559003E0
3.187021824E1,-2.573878765E0,-1.688888431E0,-2.186819553E0
3.188945803E1,-2.226449490E0,-1.282205224E0,-2.319988012E0
3.190869782E1,-1.961028695E0,-6.207913160E-1,-2.382601738E0
3.192793761E1,-1.588248372E0,2.600756884E-1,-2.375424147E0
3.194717740E1,-8.600975871E-1,8.819360137E-1,-2.226831198E0
3.196641719E1,2.557996213E-1,1.477834582E0,-2.009363413E0
3.198565699E1,1.480583549E0,2.175900459E0,-1.728823662E0
3.200489678E1,2.512486935E0,3.001025915E0,-1.193858862E0
3.202413657E1,3.409389019E0,3.768882990E0,-5.287798047E-1
3.204337636E1,4.312094688E0,3.884031057E0,3.446041048E-1
3.206261615E1,5.495034218E0,2.443764448E0,1.274187565E0
3.208185594E1,7.193390846E0,4.731147587E-1,1.217988014E0
3.210109574E1,8.489645958E0,3.191768378E-2,3.403280377E-1
3.212033553E1,7.636573315E0,8.307760954E-1,-4.521162808E-1
3.213957532E1,5.340943336E0,2.335030556E0,-8.493311405E-1
3.215881511E1,3.158323526E0,3.494146585E0,-1.266704440E0
3.217805490E1,1.783114314E0,4.074162483E0,-1.662392139E0
3.219729469E1,1.282816052E0,4.482525826E0,-1.658116102E0
3.221653449E1,1.387884736E0,4.269944668E0,-1.215849996E0
3.223577428E1,1.678656459E0,3.318522930E0,-7.827468514E-1
3.225501407E1,1.680947185E0,2.202931166E0,-5.816196203E-1
3.227425386E1,1.320078731E0,1.436906695E0,-4.423424602E-1
3.229349365E1,8.764382601E-1,1.388648391E0,-2.994000912E-1
3.231273344E1,7.142536640E-1,1.366962671E0,-3.522399068E-1
3.233197324E1,4.130973220E-1,1.136972070E0,-4.070650041E-1
3.235121303E1,-1.126892805E0,8.883501291E-1,-1.031597927E-1
3.237045282E1,-3.488343239E0,2.012799382E-1,1.017853469E-1
3.238969251E1,-5.108356953E0,-1.193018913E0,-2.512181364E-2
3.240893230E1,-6.820610523E0,-3.259116411E0,-3.349829614E-1
3.242817209E1,-8.614262581E0,-5.144092083E0,-4.530325830E-1
3.244741188E1,-8.663895607E0,-6.948892117E0,1.995237023E-1
3.246665167E1,-5.040703297E0,-7.006008148E0,1.134604931E0
3.248589146E1,-9.385937452E-1,-5.341707230E0,1.611995816E0
3.250513126E1,2.641990222E-2,-4.259407520E0,1.948734999E0
3.252437105E1,-9.964731932E-1,-3.763385296E0,1.448131323E0
3.254361084E1,-2.005927324E0,-3.148549795E0,2.346484363E-1
3.256285063E1,-2.844339132E0,-2.284786940E0,-8.841503859E-1
3.258209042E1,-3.394728184E0,-1.676212907E0,-1.644371629E0
3.260133021E1,-3.538586855E0,-1.600007534E0,-2.196746111E0
3.262057001E1,-3.258658171E0,-1.719889760E0,-2.518366337E0
3.263980980E1,-2.723845959E0,-1.836259484E0,-2.624351501E0
3.265904959E1,-2.136194229E0,-1.684612393E0,-2.681314707E0
3.267828928E1,-1.459661365E0,-1.296713233E0,-2.769737244E0
3.269752907E1,-6.149880886E-1,-6.611084342E-1,-2.762559652E0
3.271676886E1,3.045161068E-1,-1.527161949E-4,-2.652909279E0
3.273600865E1,1.038164735E0,4.746419191E-1,-2.367635489E0
3.275524844E1,1.619097114E0,4.373791814E-1,-1.829463601E0
3.277448824E1,2.039524794E0,-1.953240186E-1,-9.252310395E-1
3.279372803E1,1.440724611E0,-2.881907225E0,5.383246019E-2
3.281296782E1,7.293725610E-1,-4.794525146E0,6.398044825E-1
3.283220761E1,8.063415438E-2,-3.417788506E0,9.817360640E-1
3.285144740E1,1.308777779E-1,1.251051068E0,1.398651242E0
3.287068709E1,5.564978123E-1,5.050171852E0,1.379561782E0
3.288992688E1,9.190460443E-1,5.915003777E0,1.480507135E0
3.290916667E1,1.054352641E0,4.673115730E0,1.882608891E0
3.292840646E1,9.039271474E-1,2.875187874E0,2.067090034E0
3.294764626E1,8.491020203E-1,1.692095399E0,1.994244456E0
3.296688605E1,1.122616768E0,1.214246511E0,1.559003234E0
3.298612584E1,7.950404882E-1,9.801325202E-1,6.488147378E-1
3.300536563E1,-5.036579967E-1,7.003564835E-1,-3.687332571E-1
3.302460532E1,-1.914602876E0,7.803797722E-1,-9.004910588E-1
3.304384511E1,-2.295171738E0,1.064584613E0,-8.200095892E-1
3.306308490E1,-1.567784429E0,9.640973210E-1,-1.011821151E0
3.308232469E1,-1.066111803E0,4.277580678E-1,-1.397429585E0
3.310156449E1,-1.498298645E0,-3.037525117E-1,-1.490128279E0
3.312080428E1,-1.977216601E0,-9.752455950E-1,-1.244407892E0
3.314004396E1,-1.897193313E0,-1.733634233E0,-1.173547626E0
3.315928376E1,-2.037081242E0,-2.535394192E0,-1.458668709E0
3.317852355E1,-3.078605890E0,-3.031416416E0,-1.759061456E0
3.319776334E1,-4.872562885E0,-3.150382280E0,-1.920329809E0
3.321700313E1,-6.248688698E0,-3.041342974E0,-2.046626091E0
3.323624292E1,-6.506473541E0,-2.470031738E0,-2.289597511E0
3.325548271E1,-6.246703148E0,-1.836259484E0,-2.303189278E0
3.327472240E1,-6.419272423E0,-1.164613724E0,-2.098702192E0
3.329396219E1,-6.700423241E0,-3.620901108E-1,-1.539150119E0
3.331320198E1,-6.517468929E0,-9.236275554E-1,-9.053779840E-1
3.333244178E1,-5.116450787E0,-2.127947569E0,-2.618319094E-1
3.335168157E1,-2.900844097E0,-2.470795393E0,5.301542878E-1
3.337092126E1,-1.423620343E0,-2.125198603E0,1.196455002E0
3.339016105E1,-1.291062713E0,-1.499673009E0,1.190499067E0
3.340940084E1,-1.600465775E0,-5.109884143E-1,7.943533063E-1
3.342864063E1,-1.531437993E0,4.639517963E-1,3.120755553E-1
3.344788042E1,-1.065959096E0,9.424116611E-1,-2.425896823E-1
3.346712011E1,-4.059196413E-1,1.115591764E0,-4.817432463E-1
3.348635990E1,2.522871494E-1,8.475748897E-1,-4.996110201E-1
3.350559969E1,9.176716208E-1,1.522580534E-1,-5.426769853E-1
3.352483948E1,1.822362304E0,-7.422006875E-2,-7.129555345E-1
3.354407928E1,2.741102934E0,1.870773435E-1,-9.252310395E-1
3.356331896E1,3.469559193E0,4.680751264E-1,-1.132772326E0
3.358255876E1,4.304153442E0,4.972439408E-1,-1.348407626E0
3.360179855E1,5.462810993E0,5.771145225E-1,-1.484630466E0
3.362103834E1,6.386133194E0,6.444623470E-1,-1.866879106E0
3.364027803E1,6.931787968E0,1.492037177E-1,-2.337092400E0
3.365951782E1,7.386118889E0,-7.918334603E-1,-2.788674116E0
3.367875761E1,7.238747597E0,-1.656207085E0,-3.293095589E0
3.369799740E1,6.418203354E0,-2.090684652E0,-3.542023182E0
3.371723719E1,5.263058186E0,-1.940717459E0,-3.508272886E0
3.373647688E1,3.912130833E0,-1.355814338E0,-3.231703758E0
3.375571667E1,2.494008064E0,-1.797469556E-1,-2.626489401E0
3.377495646E1,1.193324327E0,9.676098228E-1,-1.805487156E0
3.379419615E1,-7.177661173E-3,1.533117890E0,-1.230663419E0
3.381343594E1,-1.483637810E0,1.443168044E0,-8.621592522E-1
3.383267574E1,-3.112508774E0,8.807142973E-1,-3.291797638E-1
3.385191553E1,-4.119977474E0,7.299833745E-2,3.488801420E-1
3.387115521E1,-4.289950848E0,-6.792816520E-1,1.152625442E0
3.389039501E1,-3.812101603E0,-1.232877851E0,1.658726931E0
3.390963480E1,-3.345401049E0,-1.454927206E0,1.480354428E0
3.392887459E1,-3.487885237E0,-1.577863693E0,9.795980453E-1
3.394811428E1,-4.240470409E0,-2.131001711E0,4.686096311E-1
3.396735407E1,-4.680751324E0,-3.471086502E0,9.094249457E-2
3.398659386E1,-4.657996655E0,-5.123628139E0,-5.596284866E-1
3.400583365E1,-5.744725227E0,-6.032595158E0,-1.721646070E0
3.402507334E1,-7.963844299E0,-6.406138897E0,-2.576093197E0
3.404431313E1,-8.944587708E0,-5.956695080E0,-2.805625677E0
3.406355292E1,-7.453313828E0,-4.633103848E0,-2.208810568E0
3.408279271E1,-5.225184441E0,-3.544084787E0,-2.234314203E0
3.410203240E1,-5.485107422E0,-2.120006323E0,-2.808527231E0
3.412127219E1,-7.353590012E0,-1.378416419E0,-3.416795731E0
3.414051198E1,-7.931315422E0,-1.614973783E0,-3.695502758E0
3.415975167E1,-6.728370190E0,-1.508225083E0,-3.544008493E0
3.417899146E1,-4.463283539E0,-9.123265743E-1,-3.124955177E0
3.419823126E1,-2.601520300E0,-4.213439822E-1,-2.975445986E0
3.421747094E1,-1.908799767E0,-5.450441241E-1,-2.977584124E0
3.423671074E1,-1.632688880E0,-7.835868001E-1,-2.636874199E0
3.425595053E1,-7.050906420E-1,-3.962985277E-1,-2.102061987E0
3.427519021E1,7.356339097E-1,1.022893071E0,-1.627114654E0
3.429443001E1,2.002109289E0,2.275013208E0,-1.285641313E0
3.431367136E1,2.795469999E0,2.552193165E0,-8.253546953E-1
3.433290959E1,3.692524910E0,1.946673393E0,-1.173623949E-1
3.435214928E1,5.655691624E0,7.722858191E-1,6.410261989E-1
3.437138907E1,8.126791954E0,-5.213730931E-1,3.629300296E-1
3.439062876E1,9.899979591E0,-7.454077601E-1,-7.522036433E-1
3.440986855E1,9.749402046E0,9.178243577E-2,-1.775096655E0
3.442910834E1,8.334792137E0,1.084437728E0,-2.144975424E0
3.444834803E1,6.893150806E0,1.436753988E0,-1.801058412E0
3.446758782E1,5.437613010E0,1.105207086E0,-1.299843907E0
3.448682761E1,3.654498577E0,7.648026943E-1,-9.476803541E-1
3.450606730E1,1.851225734E0,1.036790252E0,-6.669879556E-1
3.452530709E1,4.184423685E-1,1.423620343E0,-5.347357392E-1
3.454454688E1,-7.061597109E-1,1.882227063E0,-3.862956166E-1
3.456378657E1,-1.718820810E0,2.228281975E0,1.827249229E-1
3.458302636E1,-2.502865791E0,1.952018380E0,1.197524071E0
3.460226615E1,-2.987739563E0,9.075923562E-1,2.175671339E0
3.462150584E1,-3.317301273E0,-5.841394663E-1,2.893131971E0
3.464074563E1,-3.581805706E0,-2.351676702E0,3.323180676E0
3.465998532E1,-3.809200048E0,-3.908312798E0,3.226358652E0
3.467922511E1,-4.115701675E0,-5.307040691E0,2.801960468E0
3.469846490E1,-4.231002331E0,-6.124072075E0,2.434219837E0
3.471770459E1,-4.959153175E0,-5.738769054E0,2.575940371E0
3.473694438E1,-6.438056469E0,-4.921279430E0,2.761337996E0
3.475618417E1,-7.164985657E0,-4.186561584E0,2.303494692E0
3.477542386E1,-6.123919487E0,-3.363879681E0,9.052252173E-1
3.479466365E1,-4.055073261E0,-1.949880362E0,2.191477455E-2
3.481390334E1,-2.904662132E0,-1.672394991E0,9.750928730E-2
3.483314313E1,-2.462548733E0,-2.278067589E0,-2.767980993E-1
3.485238292E1,-2.006538153E0,-2.501338482E0,-1.070006013E0
3.487162261E1,-1.675907493E0,-2.100764036E0,-1.483408809E0
3.489086240E1,-1.642615438E0,-1.560606837E0,-1.535943151E0
3.491010209E1,-1.822209597E0,-1.115286350E0,-1.551367521E0
3.492934188E1,-1.923460484E0,-1.072831273E0,-1.559461474E0
3.494858157E1,-1.712101221E0,-1.506698012E0,-1.602374673E0
3.496782136E1,-9.656245112E-1,-1.827860117E0,-1.603138208E0
3.498706115E1,6.902772188E-2,-1.217453480E0,-1.719049811E0
3.500630084E1,6.333140731E-1,3.550651670E-1,-2.232481718E0
3.502554063E1,7.295252681E-1,2.100764036E0,-2.713995934E0
3.504478032E1,1.047480345E0,3.422827959E0,-2.836474180E0
3.506402011E1,1.759443283E0,4.175566196E0,-2.890688419E0
3.508325980E1,2.674824238E0,5.102859020E0,-2.781954527E0
3.510249959E1,3.310734272E0,5.621330261E0,-1.949498534E0
3.512173938E1,3.455204010E0,4.181674957E0,-1.050458312E0
3.514097907E1,3.945728302E0,1.822515011E0,-1.184848547E0
3.516021886E1,4.449691772E0,1.334128737E0,-1.604359984E0
3.517945855E1,4.738936424E0,3.236819744E0,-1.544953346E0
3.519869834E1,4.637074471E0,5.055974960E0,-1.296331406E0
3.521793803E1,3.992154121E0,5.251146317E0,-1.370856881E0
3.523717782E1,3.346011877E0,4.604698658E0,-1.328096390E0
3.525641751E1,2.922071695E0,4.036594391E0,-1.096120477E0
3.527565730E1,2.551276684E0,3.335627079E0,-8.907172084E-1
3.529489698E1,1.994931698E0,2.633896112E0,-7.971021533E-1
3.531413678E1,1.227532744E0,2.047618628E0,-6.986002326E-1
3.533337646E1,5.876519084E-1,1.356425285E0,-4.595993757E-1
3.535261626E1,2.426660359E-1,8.245147467E-1,-8.804088831E-2
3.537185594E1,-3.185659945E-1,4.207331240E-1,2.213621289E-1
3.539109574E1,-1.513570189E0,-3.769035637E-1,5.901717544E-1
3.541033553E1,-3.176954985E0,-1.664606571E0,1.124525666E0
3.542957521E1,-4.468934059E0,-2.617708206E0,1.603901863E0
3.544881490E1,-5.593535900E0,-3.452455044E0,2.704374790E0
3.546805469E1,-7.766993046E0,-7.131388187E0,3.492390394E0
3.548729448E1,-8.670614243E0,-9.755205154E0,3.474980593E0
3.550653417E1,-9.211840630E0,-8.283937454E0,4.221304893E0
3.552577396E1,-8.841504097E0,-3.611890793E0,4.446866512E0
3.554501365E1,-7.071828842E0,-1.623983979E0,2.958494425E0
3.556425344E1,-4.393339634E0,-1.695302486E0,9.675334692E-1
3.558349313E1,-2.093739033E0,-1.902691126E0,-3.898080885E-1
3.560273282E1,-1.069624186E0,-2.032958031E0,-9.718095064E-1
3.562197261E1,-9.934188724E-1,-1.708894253E0,-1.170798659E0
3.564121230E1,-1.121089578E0,-1.170569658E0,-1.436066747E0
3.566045209E1,-9.346231222E-1,-8.903354406E-1,-1.651549339E0
3.567969178E1,-3.367392123E-1,-1.007774115E0,-1.860617757E0
3.569893157E1,6.073523164E-1,-1.110094070E0,-1.842139125E0
3.571817126E1,1.470809698E0,-9.418007731E-1,-1.468747973E0
3.573741105E1,1.625511169E0,-4.776962698E-1,-1.116279006E0
3.575665074E1,1.351996422E0,4.932733178E-1,-1.128190875E0
3.577589053E1,1.373682141E0,1.772424102E0,-1.313130260E0
3.579513021E1,1.823889494E0,2.774700642E0,-1.473176718E0
3.581437001E1,2.570060730E0,3.129002094E0,-1.380478024E0
3.583360969E1,3.362046957E0,3.265530348E0,-1.228525400E0
3.585284938E1,3.499949694E0,1.194698811E0,-8.274927139E-1
3.587208917E1,3.327991247E0,-1.724013090E0,-1.036408424E0
3.589132886E1,2.629925489E0,-2.301585674E0,-6.524799466E-1
3.591056865E1,1.434005022E0,1.100014806E0,4.573849961E-2
3.592980834E1,9.566142559E-1,5.128057003E0,-1.683696061E-1
3.594904813E1,7.105884552E-1,6.396365166E0,-2.711476088E-1
3.596828782E1,6.913462281E-1,4.943270683E0,3.871355578E-2
3.598752761E1,1.155603409E0,3.138164997E0,5.035816431E-1
3.600676730E1,1.864053845E0,2.262795925E0,5.723039508E-1
3.602600698E1,1.956141710E0,2.027154684E0,3.957640231E-1
3.604524678E1,1.173776627E0,1.950033069E0,1.775325835E-1
3.606448646E1,3.692677617E-1,1.855196357E0,4.244746566E-1
3.608372626E1,2.174678594E-1,1.439350128E0,9.623411298E-1
3.610296594E1,6.130027771E-1,1.022282243E0,6.124683022E-1
3.612220574E1,1.016479015E0,8.523091078E-1,-5.492438078E-1
3.614144542E1,4.550942481E-1,2.437350452E-1,-1.251280189E0
3.616068511E1,-1.671478748E0,-1.538310289E0,-1.327790976E0
3.617992490E1,-4.458854675E0,-3.167333841E0,-1.303814530E0
3.619916459E1,-6.526937485E0,-3.879296780E0,-1.875736713E0
3.621840438E1,-7.111687660E0,-4.133416653E0,-2.232023478E0
3.623764407E1,-6.622232437E0,-4.921126842E0,-1.820453405E0
3.625688376E1,-5.945241451E0,-6.284271240E0,-1.309312344E0
3.627612355E1,-6.068941593E0,-7.310524464E0,-1.005407095E0
3.629536324E1,-7.330377579E0,-7.311135292E0,-5.826886296E-1
3.631460292E1,-8.417564392E0,-6.667894363E0,1.889862865E-1
3.633384271E1,-7.809448242E0,-5.966468811E0,9.017127752E-1
3.635308240E1,-6.123461246E0,-4.492452145E0,1.253876328E0
3.637232219E1,-5.398211956E0,-2.526689529E0,1.222874880E0
3.639156188E1,-5.719374180E0,-1.086728454E0,8.436806202E-1
3.641080157E1,-5.807949543E0,-5.648971796E-1,3.061196208E-1
3.643004136E1,-5.332238674E0,-5.795579553E-1,-1.233183295E-1
3.644928105E1,-4.681362152E0,-9.199623466E-1,-3.785070777E-1
3.646852074E1,-3.926638842E0,-1.489899158E0,-5.942950845E-1
3.648776053E1,-3.125336885E0,-1.843589902E0,-7.482330203E-1
3.650700021E1,-2.678183794E0,-2.024558544E0,-1.042058945E0
3.652624001E1,-2.583652496E0,-1.739590168E0,-1.708054304E0
3.654547969E1,-2.333045244E0,-5.713112950E-1,-2.417879105E0
3.656471938E1,-1.671173334E0,1.057254195E0,-2.956967354E0
3.658395917E1,-7.893900275E-1,2.311665058E0,-3.429776669E0
3.660319886E1,2.457203567E-1,2.726442337E0,-3.877846003E0
3.662243855E1,1.424842119E0,2.423605919E0,-4.266050339E0
3.664167834E1,2.614348650E0,2.295171738E0,-4.338132381E0
3.666091803E1,3.864788771E0,1.801287532E0,-4.098062515E0
3.668015771E1,5.383551121E0,1.293353438E0,-4.145404816E0
3.669939751E1,6.111396790E0,1.983783364E0,-4.396470070E0
3.671863719E1,5.064680099E0,2.741408348E0,-4.314156055E0
3.673787688E1,4.117686749E0,3.229947567E0,-3.679162264E0
3.675711667E1,3.866468668E0,2.890306711E0,-2.862130642E0
3.677635636E1,3.285230875E0,2.588539600E0,-1.776013017E0
3.679559605E1,1.512348533E0,2.427118540E0,-5.542834401E-1
3.681484230E1,-8.210022449E-1,2.256229162E0,2.903898358E-1
3.683407553E1,-2.283259869E0,2.407570839E0,9.608139396E-1
3.685331521E1,-2.928943872E0,2.607781649E0,1.830838084E0
3.687255501E1,-3.125642300E0,1.995084405E0,2.699335098E0
3.689179469E1,-3.003927469E0,5.094612241E-1,2.749731541E0
3.691103438E1,-3.034623623E0,-5.616901517E-1,2.329609156E0
3.693027417E1,-3.980853081E0,-1.050840139E0,2.057621717E0
3.694951386E1,-5.226864338E0,-1.928347349E0,1.746691465E0
3.696875355E1,-5.703949928E0,-3.347538948E0,1.256930590E0
3.698799324E1,-6.188823700E0,-5.401113510E0,1.005865216E0
3.700723303E1,-7.707128048E0,-7.900466919E0,1.271133304E0
3.702647271E1,-7.707586288E0,-9.302706718E0,1.964159369E0
3.704571240E1,-6.030915260E0,-8.598990440E0,2.493015528E0
3.706495219E1,-5.253437042E0,-5.520384789E0,2.533485413E0
3.708419188E1,-6.235402107E0,-2.117562771E0,1.210963011E0
3.710343157E1,-7.048921585E0,-2.512181401E-1,-4.614319801E-1
3.712267126E1,-6.605891705E0,-6.056724191E-1,-1.408272386E0
3.714191105E1,-4.944950581E0,-1.810755968E0,-1.733863354E0
3.716115074E1,-3.577682257E0,-2.624275208E0,-1.707596183E0
3.718039042E1,-2.974453211E0,-2.670700788E0,-1.826256633E0
3.719963021E1,-2.795011759E0,-1.691942692E0,-2.186666727E0
3.721886990E1,-2.815170288E0,-2.919933498E-1,-2.623129606E0
3.723810959E1,-2.745378971E0,7.328850031E-1,-2.901684046E0
3.725734928E1,-2.278678417E0,1.754709125E0,-2.873278856E0
3.727658907E1,-1.386968493E0,2.715141296E0,-2.786077976E0
3.729582876E1,-3.387245238E-1,3.590815783E0,-3.378463984E0
3.731506844E1,3.543015718E-1,4.561021805E0,-4.517268658E0
3.733430813E1,8.147408962E-1,5.864607334E0,-4.476799011E0
3.735354792E1,1.722791433E0,6.336805820E0,-3.171228170E0
3.737278761E1,3.821264744E0,5.054295063E0,-1.494862437E0
3.739202730E1,6.936369419E0,1.842979074E0,-3.455203772E-1
3.741126699E1,9.744515419E0,1.043204308E0,-8.467349410E-1
3.743050678E1,9.240245819E0,2.895498991E0,-1.657047033E0
3.744974646E1,6.486314774E0,5.755262375E0,-1.471649647E0
3.746898615E1,4.675559044E0,7.149255753E0,-6.596575975E-1
3.748822584E1,3.913657904E0,6.112160206E0,4.577668011E-1
3.750746563E1,3.407251120E0,4.042397499E0,1.365053654E0
3.752670532E1,2.937037945E0,2.128863811E0,1.721951485E0
3.754594501E1,2.092669964E0,7.703005075E-1,1.694920659E0
3.756518469E1,6.944005489E-1,2.458730787E-1,1.431332588E0
3.758442438E1,-9.251546860E-1,6.220130324E-1,1.106505156E0
3.760366417E1,-2.424674988E0,1.399949312E0,9.463059306E-1
3.762290386E1,-3.533852816E0,2.041204691E0,8.896481991E-1
3.764214355E1,-4.344164848E0,2.122449636E0,1.055803418E0
3.766138324E1,-4.661967278E0,1.685070515E0,1.402011037E0
3.768062292E1,-4.670825005E0,7.183769941E-1,1.612453938E0
3.769986271E1,-4.852557182E0,-9.178243279E-1,1.498527646E0
3.771910240E1,-5.429976940E0,-2.679863691E0,1.089401007E0
3.773834209E1,-6.687136650E0,-3.858222008E0,4.866301417E-1
3.775758178E1,-8.761327744E0,-5.291310787E0,4.741837829E-2
3.777682146E1,-8.510109901E0,-6.197681427E0,-2.574031353E-1
3.779606126E1,-5.825970173E0,-4.820486546E0,-8.788817376E-2
3.781530094E1,-3.413359642E0,-1.838397503E0,-2.586248815E-1
3.783454063E1,-3.112203360E0,4.153880477E-2,-5.866592526E-1
3.785378032E1,-3.405112982E0,8.536835015E-2,-9.131664634E-1
3.787302001E1,-2.748891592E0,-7.319687009E-1,-1.404454470E0
3.789225980E1,-1.649487615E0,-1.282052398E0,-1.715690136E0
3.791149948E1,-8.526145220E-1,-1.466991782E0,-1.908876061E0
3.793073917E1,-2.942841053E-1,-1.007774115E0,-1.987524867E0
3.794997886E1,-8.613193035E-2,-2.235765159E-1,-1.924453139E0
3.796921855E1,-1.777616441E-1,3.901898861E-1,-1.937586665E0
3.798845824E1,-1.369864196E-1,7.724385262E-1,-2.110461473E0
3.800769803E1,3.426951468E-1,1.163391948E0,-2.212781191E0
3.802693771E1,1.021518588E0,1.726303816E0,-2.203923702E0
3.804617740E1,1.542739034E0,2.303723812E0,-2.084194183E0
3.806541709E1,1.931859851E0,2.820209980E0,-1.691713691E0
3.808465678E1,2.372751474E0,3.063945055E0,-9.794453382E-1
3.810389646E1,3.114341259E0,2.903287649E0,4.054614902E-2
3.812313615E1,3.930914879E0,1.210275888E0,1.222722173E0
3.814237594E1,5.329031467E0,-9.877683520E-1,1.468289852E0
3.816161563E1,6.608182430E0,-5.870410800E-1,9.090431333E-1
3.818085532E1,5.736325741E0,1.075274706E0,6.449968219E-1
3.820009501E1,4.690830708E0,3.043328285E0,5.952113867E-1
3.821933469E1,4.168694019E0,4.110203743E0,1.416442692E-1
3.823857438E1,3.623039007E0,4.491230488E0,-5.749764666E-2
3.825781407E1,2.994917393E0,4.484663963E0,5.345066893E-4
3.827705386E1,2.574031353E0,3.960389137E0,6.101011857E-2
3.829629355E1,2.418871880E0,3.247662544E0,-1.244636998E-2
3.831553324E1,2.248287916E0,2.678183794E0,-1.152243689E-1
3.833477292E1,1.847102404E0,2.377332926E0,-2.282343507E-1
3.835401261E1,1.222645879E0,2.153298378E0,-2.856556475E-1
3.837325230E1,6.954695582E-1,2.023642302E0,-3.293324709E-1
3.839249198E1,4.789179862E-1,1.934761524E0,-3.050506115E-1
3.841173167E1,2.193004489E-1,1.512653947E0,-3.664425015E-1
3.843097136E1,-4.708240330E-1,8.196278214E-1,-6.201041341E-1
3.845021115E1,-1.746462345E0,1.200349256E-1,-8.601739407E-1
3.846945084E1,-3.077994823E0,-4.825831652E-1,-8.591049314E-1
3.848869053E1,-5.232362270E0,-1.862984896E0,-1.244407892E0
3.850793021E1,-7.241801739E0,-4.070650101E0,-1.848553181E0
3.852716990E1,-8.040659904E0,-6.607419014E0,-1.641622782E0
3.854640959E1,-6.197223186E0,-6.942173004E0,-2.274707705E-1
3.856564928E1,-2.905120134E0,-4.755582333E0,1.305341721E0
3.858488896E1,-1.777769208E0,-3.709934473E0,1.689881086E0
3.860412865E1,-1.896887898E0,-3.383274555E0,1.256167054E0
3.862336834E1,-1.928652883E0,-2.801578522E0,3.785070777E-1
3.864260803E1,-1.967290044E0,-1.898567677E0,-5.628355145E-1
3.866184771E1,-2.077245712E0,-1.154229045E0,-1.414686441E0
3.868108751E1,-2.131765366E0,-9.402735829E-1,-2.038074017E0
3.870032719E1,-1.990350127E0,-1.239291906E0,-2.489808559E0
3.871956688E1,-1.556941628E0,-1.738826632E0,-2.781343699E0
3.873880657E1,-9.757037759E-1,-2.103971004E0,-2.955592871E0
3.875804626E1,-4.178315103E-1,-2.113744736E0,-2.993008375E0
3.877728594E1,5.894844979E-2,-1.817628145E0,-2.995451689E0
3.879652563E1,4.341721535E-1,-1.399643898E0,-2.969642878E0
3.881576532E1,9.025527239E-1,-7.785471678E-1,-2.739346743E0
3.883500501E1,1.419344306E0,2.735147178E-1,-1.951483846E0
3.885424469E1,1.087186575E0,-1.152854562E0,-5.635991096E-1
3.887348438E1,9.625701904E-1,-3.970315695E0,5.142717957E-1
3.889272407E1,1.178969026E0,-4.744586945E0,8.896481991E-1
3.891196376E1,1.353065491E0,-2.458425283E0,1.593822598E0
3.893120344E1,1.958127022E0,1.834274173E0,2.519282818E0
3.895044313E1,2.161697626E0,4.345692158E0,2.641761065E0
3.896968282E1,1.852600217E0,4.101804256E0,2.300593138E0
3.898892251E1,1.632383466E0,2.746295214E0,1.953621864E0
3.900816219E1,1.666744590E0,2.072969675E0,1.566639066E0
3.902740188E1,1.520136952E0,2.244622707E0,1.034881353E0
3.904664157E1,7.611374855E-1,3.110065222E0,3.478111327E-1
3.906588136E1,-3.820959330E-1,3.851655245E0,-2.526689470E-1
3.908512105E1,-1.052672744E0,4.504517078E0,-6.921861768E-1
3.910436074E1,-8.069523573E-1,4.595688343E0,-9.908990264E-1
3.912360042E1,1.212566569E-1,3.858374596E0,-1.039157391E0
3.914284011E1,1.177289128E0,2.702465773E0,-9.238566160E-1
3.916207980E1,1.726151109E0,2.021809816E0,-9.886083007E-1
3.918131948E1,1.313053846E0,1.178663611E0,-1.287473917E0
3.920055917E1,9.590577334E-2,-1.032972336E0,-1.874209523E0
3.921979886E1,-9.561560750E-1,-2.679711103E0,-2.658712626E0
3.923903855E1,-1.397811294E0,-2.749502420E0,-3.125871420E0
3.925827824E1,-1.739437461E0,-1.979812741E0,-2.992855549E0
3.927751792E1,-2.197280645E0,-1.396131396E0,-2.564486742E0
3.929675761E1,-2.593731880E0,-1.441640854E0,-2.535776138E0
3.931599730E1,-3.464672327E0,-2.605185509E0,-2.478660107E0
3.933523698E1,-4.576293468E0,-4.470155716E0,-2.166355610E0
3.935447667E1,-5.330711365E0,-5.665617943E0,-1.619784355E0
3.937371636E1,-5.523133755E0,-5.192808628E0,-8.404735923E-1
3.939295605E1,-4.761385441E0,-3.905258417E0,-3.484219909E-1
3.941219574E1,-3.851197004E0,-2.974911451E0,-1.492800862E-1
3.943143542E1,-3.437641621E0,-2.238055944E0,1.214093715E-2
