"Time (s)","Acceleration x (m/s^2)","Acceleration y (m/s^2)","Acceleration z (m/s^2)"
2.522507100E-2,-6.942176819E-1,7.532306671E0,6.172883987E0
7.332340400E-2,-3.852444589E-1,7.533204079E0,6.445366859E0
1.214216330E-1,-2.997010350E-1,7.336992264E0,6.577271461E0
1.695198620E-1,-9.299107194E-1,7.522436142E0,6.981957436E0
2.176181960E-1,-3.403790295E-1,7.604988575E0,6.506682873E0
2.657164250E-1,-7.058826834E-2,7.578667641E0,6.006583214E0
3.138146540E-1,-2.291127741E-1,7.433004379E0,6.013761520E0
3.619129870E-1,-7.956135273E-2,7.438388348E0,6.099005699E0
4.100112160E-1,-3.266202807E-1,7.419544697E0,6.292824268E0
4.581094460E-1,-1.896311939E-1,7.527221680E0,6.333801746E0
5.062077790E-1,-2.207378894E-1,7.500302792E0,6.461518288E0
5.543060080E-1,-1.307079345E-1,7.551149845E0,6.162116528E0
6.024042370E-1,-1.271187067E-1,7.466204643E0,6.413362980E0
6.505025710E-1,-4.728815854E-1,7.444071293E0,6.478268147E0
6.986008000E-1,-1.809572130E-1,7.334599495E0,6.709474564E0
7.466990290E-1,-3.212364316E-1,7.367500782E0,6.496214390E0
7.947973620E-1,-1.232303679E-1,7.315456867E0,6.330212116E0
8.428955910E-1,-2.799602449E-1,7.208677292E0,6.813562393E0
8.909938210E-1,-1.579262912E-1,7.189833641E0,6.773183823E0
9.390920500E-1,-3.230310678E-1,7.226324558E0,6.656234264E0
9.871903830E-1,-2.051845491E-1,7.225128174E0,6.602396011E0
1.035288612E0,-3.553341627E-1,7.129116058E0,6.940980434E0
1.083386841E0,-2.273181528E-1,7.088737011E0,7.004390240E0
1.131485175E0,-2.877369225E-1,7.206583500E0,6.527021885E0
1.179583404E0,-3.233301640E-1,7.183851719E0,6.702595234E0
1.227681633E0,-2.285145670E-1,7.243971348E0,6.852446079E0
1.275779862E0,-2.437688112E-1,7.198507786E0,6.876374245E0
1.323878196E0,-1.082752272E-1,7.167101860E0,6.832107067E0
1.371976425E0,-6.879365072E-3,7.202096939E0,6.768397808E0
1.420074654E0,-6.251249462E-2,7.181757927E0,6.740581512E0
1.468172883E0,-9.302098304E-2,7.155735970E0,6.938288212E0
1.516271216E0,-1.932204217E-1,7.182356358E0,6.742375851E0
1.564369446E0,-1.633101404E-1,7.173383236E0,6.749255180E0
1.612467675E0,-1.549352705E-1,7.223333359E0,6.576074600E0
1.660566008E0,-2.015953064E-1,7.152445793E0,6.720242500E0
1.708664237E0,-1.405783296E-1,7.248457909E0,6.607181549E0
1.756762466E0,-1.142572835E-1,7.160222530E0,6.813562393E0
1.804860696E0,-1.103689447E-1,7.090531826E0,6.863512516E0
1.852959029E0,6.370890141E-2,7.095915318E0,6.753143787E0
1.901057258E0,-1.271187067E-1,7.036095142E0,6.801897526E0
1.949155487E0,-1.190429255E-1,7.151548862E0,6.731907368E0
1.997253716E0,-2.623131871E-1,7.193123817E0,6.813861370E0
2.045352050E0,-1.019940674E-1,7.223333359E0,6.773781776E0
2.093450279E0,-1.259222925E-1,7.198208809E0,6.768397808E0
2.141548508E0,-1.316052489E-2,7.130611420E0,6.720541477E0
2.189646841E0,8.973085135E-2,7.135696411E0,6.745965004E0
2.237745071E0,-1.238285750E-1,7.081558704E0,6.815656185E0
2.285843300E0,-1.178465188E-1,7.132705212E0,6.865008354E0
2.333941529E0,-2.216351926E-1,7.153941631E0,6.923333168E0
2.382039862E0,-2.347957194E-1,7.221538544E0,6.691229343E0
2.430138091E0,-1.809572130E-1,7.253243446E0,6.485147476E0
2.478236321E0,-2.769692242E-1,7.181159973E0,6.843771935E0
2.526334654E0,-1.689931005E-1,7.160222530E0,6.796214581E0
2.574432883E0,-2.584248483E-1,7.197012424E0,6.588038921E0
2.622531112E0,-2.368894368E-1,7.151249409E0,6.949953556E0
2.670629341E0,-2.895315289E-1,7.220940590E0,6.745068073E0
2.718727675E0,-2.003988922E-1,7.187440872E0,6.589235306E0
2.766825904E0,-1.600200087E-1,7.152445793E0,6.742675304E0
2.814924133E0,-5.802594870E-2,7.237690449E0,6.516254425E0
2.863022466E0,-1.480558962E-1,7.198806763E0,6.787839413E0
2.911120696E0,-1.881356835E-1,7.174579620E0,6.881757736E0
2.959218925E0,-1.157527938E-1,7.147959232E0,6.864110947E0
3.007317258E0,-1.477568001E-1,7.144968510E0,6.745367050E0
3.055415487E0,-2.156531364E-1,7.182356358E0,6.699903488E0
3.103513716E0,-2.300100774E-1,7.162316322E0,6.761817455E0
3.151612050E0,-7.387840003E-2,7.177869797E0,6.702894211E0
3.199710279E0,-2.333002090E-1,7.116553783E0,6.881458759E0
3.247808508E0,-5.593222752E-2,7.115057945E0,6.742974281E0
3.295906737E0,-1.677966863E-1,7.137789726E0,6.712465763E0
3.344005071E0,-1.980060786E-1,7.170691490E0,6.742675304E0
3.392103300E0,-2.015953064E-1,7.150352478E0,6.908079147E0
3.440201633E0,-1.360917836E-1,7.148856640E0,6.829115868E0
3.488299862E0,-9.990034252E-2,7.135696411E0,6.787839413E0
3.536398091E0,-1.522433460E-1,7.147361279E0,6.756732941E0
3.584496425E0,-2.246262282E-1,7.142874718E0,6.836892605E0
3.632594654E0,-2.036890239E-1,7.167101860E0,6.770491600E0
3.680692883E0,-1.764706671E-1,7.161418915E0,6.719644070E0
3.728791216E0,-1.905284971E-1,7.123134136E0,6.806085110E0
3.776889446E0,-1.316052526E-1,7.092326164E0,6.830910206E0
3.824987675E0,-1.956132501E-1,7.123433113E0,6.667600155E0
3.873086008E0,-2.386840582E-1,7.171887875E0,6.769893646E0
3.921184237E0,-2.638086975E-1,7.244270325E0,6.704091072E0
3.969282466E0,-1.639083475E-1,7.233801842E0,6.796513557E0
4.017380800E0,-2.802593410E-1,7.203592777E0,6.802794933E0
4.065479029E0,-1.091725305E-1,7.150950432E0,6.771090031E0
4.113577258E0,-1.600200087E-1,7.135995388E0,6.826124668E0
4.161675591E0,-4.037888348E-2,7.118946552E0,6.621239185E0
4.209773821E0,-1.211366430E-1,7.062715054E0,6.838088989E0
4.257872154E0,-1.612164229E-1,7.126124859E0,6.844669342E0
4.305970383E0,-2.380858511E-1,7.152445793E0,6.885945320E0
4.354068612E0,-2.410768867E-1,7.195516586E0,6.812964439E0
4.402166946E0,-2.054836452E-1,7.194619656E0,6.693622112E0
4.450265175E0,-2.171486616E-1,7.142276287E0,6.847062111E0
4.498363508E0,-1.830509305E-1,7.154839039E0,6.727121830E0
4.546461737E0,-2.111666054E-1,7.111169815E0,6.829713821E0
4.594559966E0,-1.534397453E-1,7.134799004E0,6.870391846E0
4.642658300E0,-1.941177398E-1,7.177271366E0,6.704689026E0
4.690756529E0,-2.159522474E-1,7.153642178E0,6.823133945E0
4.738854862E0,-1.426720470E-1,7.204190731E0,6.614359856E0
4.786953091E0,-2.530409992E-1,7.188936710E0,6.790531635E0
4.835051425E0,-1.037886813E-1,7.164709091E0,6.787839413E0
4.883149654E0,-2.213360965E-1,7.170392036E0,6.603293419E0
4.931247987E0,-4.336991161E-2,7.129116058E0,6.674778938E0
4.979346216E0,-2.321037948E-1,7.220342159E0,6.619444847E0
5.027444446E0,-1.549352705E-1,7.197012424E0,6.739085674E0
5.075542779E0,-2.943171859E-1,7.223632336E0,6.816553593E0
5.123641008E0,-2.410768867E-1,7.230212688E0,6.685247421E0
5.171739341E0,-2.542374134E-1,7.170392036E0,6.747161865E0
5.219837571E0,-1.995015889E-1,7.179664135E0,6.745965004E0
5.267935904E0,-1.764706671E-1,7.193423271E0,6.613163471E0
5.316034133E0,-1.642074585E-1,7.168298244E0,6.773781776E0
5.364132466E0,-2.270190418E-1,7.191927433E0,6.828517437E0
5.412230696E0,-1.453639716E-1,7.189235687E0,6.761817455E0
5.460329029E0,-2.494517565E-1,7.272087097E0,6.619145870E0
5.508427258E0,-1.872383654E-1,7.210172653E0,6.747161865E0
5.556525591E0,-2.315055877E-1,7.226324558E0,6.748058796E0
5.604623821E0,-1.292124242E-1,7.188338280E0,6.635895252E0
5.652722154E0,-2.578266263E-1,7.166204929E0,6.684648991E0
5.700820383E0,-2.054836452E-1,7.243672371E0,6.611967087E0
5.748918716E0,-2.249253243E-1,7.273582458E0,6.688836575E0
5.797017050E0,-2.665006220E-1,7.199405193E0,6.883851528E0
5.845115279E0,-2.730808854E-1,7.248158932E0,6.681957245E0
5.893213612E0,-1.636092514E-1,7.236793041E0,6.636493683E0
5.941311841E0,-2.670988142E-1,7.260122776E0,6.585646152E0
5.989410175E0,-2.512463629E-1,7.209275723E0,6.711269379E0
6.037508404E0,-2.949153781E-1,7.220043182E0,6.843173504E0
6.085606737E0,-1.830509305E-1,7.260122776E0,6.591030121E0
6.133704966E0,-1.944168359E-1,7.221538544E0,6.695715904E0
6.181803300E0,-2.192423791E-1,7.260122776E0,6.582654953E0
6.229901633E0,-2.590230405E-1,7.265207767E0,6.716353893E0
6.277999862E0,-2.195414752E-1,7.256533623E0,6.670292377E0
6.326098196E0,-1.983051747E-1,7.278368473E0,6.576074600E0
6.374196425E0,-2.120639086E-1,7.184749126E0,6.761817455E0
6.422294758E0,-2.437688112E-1,7.252047062E0,6.461518288E0
6.470393091E0,-2.422732860E-1,7.197311401E0,6.672086716E0
6.518491321E0,-2.144567221E-1,7.236494064E0,6.801897526E0
6.566589654E0,-1.483550072E-1,7.241279602E0,6.699305058E0
6.614687883E0,-1.091725305E-1,7.226324558E0,6.656533718E0
6.662786216E0,-1.836491376E-1,7.237690449E0,6.755536556E0
6.710884550E0,-2.751746178E-1,7.291528702E0,6.564409733E0
6.758982779E0,-2.925225794E-1,7.275676250E0,6.642774582E0
6.807081112E0,-2.754737139E-1,7.225726128E0,6.803991318E0
6.855179446E0,-1.914258152E-1,7.232904434E0,6.619444847E0
6.903277675E0,-2.596212626E-1,7.258926392E0,6.652645111E0
6.951376008E0,-2.231307179E-1,7.255636692E0,6.625127792E0
6.999474341E0,-2.593221664E-1,7.300501823E0,6.738487720E0
7.047572571E0,-2.458625287E-1,7.306783199E0,6.645167351E0
7.095670904E0,-3.511467278E-1,7.246065140E0,6.886244297E0
7.143769237E0,-3.849453330E-1,7.315157890E0,6.593721867E0
7.191867466E0,-4.031906128E-1,7.369295597E0,6.425027847E0
7.239965800E0,-2.557329237E-1,7.300800800E0,6.503093719E0
7.288064133E0,-2.593221664E-1,7.316354275E0,6.505785465E0
7.336162362E0,-2.829512656E-1,7.260422230E0,6.634998322E0
7.384260696E0,-2.315055877E-1,7.344171047E0,6.438487530E0
7.432359029E0,-2.045863420E-1,7.306184769E0,6.574878216E0
7.480457258E0,-3.478565812E-1,7.310671329E0,6.667002201E0
7.528555591E0,-2.467598319E-1,7.346563816E0,6.534200668E0
7.576653821E0,-2.470589429E-1,7.285845757E0,6.641578197E0
7.624752154E0,-2.533400953E-1,7.241578579E0,6.812964439E0
7.672850487E0,-3.619144261E-1,7.329514980E0,6.643373013E0
7.720948821E0,-3.652045429E-1,7.302894592E0,6.642774582E0
7.769047050E0,-4.244269133E-1,7.329813957E0,6.494719028E0
7.817145383E0,-4.196412563E-1,7.329813957E0,6.476772785E0
7.865243716E0,-2.440679073E-1,7.322037220E0,6.585646152E0
7.913341946E0,-1.944168359E-1,7.344171047E0,6.468996048E0
7.961440279E0,-2.120639086E-1,7.302894592E0,6.691528320E0
8.009538612E0,-1.836491376E-1,7.366902828E0,6.601199627E0
8.057636841E0,-2.195414752E-1,7.371688366E0,6.513263226E0
8.105735175E0,-2.745763958E-1,7.344171047E0,6.585047722E0
8.153833508E0,-2.033899277E-1,7.389335632E0,6.431309223E0
8.201931737E0,-2.518445849E-1,7.360920429E0,6.455536366E0
8.250030071E0,-9.810572863E-2,7.364210606E0,6.460920334E0
8.298128404E0,-2.006980032E-1,7.301399231E0,6.677171707E0
8.346226633E0,-1.992024779E-1,7.309175968E0,6.685546398E0
8.394324966E0,-4.157529473E-1,7.341478825E0,6.761817455E0
8.442423300E0,-2.988037169E-1,7.415058136E0,6.492625237E0
8.490521529E0,-2.602194548E-1,7.436294556E0,6.326025009E0
8.538619862E0,-1.292124242E-1,7.338787079E0,6.446264267E0
8.586718196E0,-9.242277592E-2,7.273582458E0,6.655935287E0
8.634816529E0,6.400800496E-2,7.285845757E0,6.530312061E0
8.682914758E0,-5.234299600E-2,7.252645493E0,6.968497753E0
8.731013091E0,-3.604189157E-1,7.429116249E0,6.587739944E0
8.779111425E0,-4.435695112E-1,7.534101009E0,6.304190159E0
8.827209654E0,-2.659024298E-1,7.364210606E0,6.495018005E0
8.875307987E0,-1.115653589E-1,7.349853992E0,6.443273067E0
8.923406321E0,-6.640082598E-2,7.253243446E0,6.646663189E0
8.971504550E0,-1.154536903E-1,7.306783199E0,6.630810738E0
9.019602883E0,7.208377868E-2,7.399205685E0,6.352644920E0
9.067701216E0,1.055833027E-1,7.391428947E0,6.476174355E0
9.115799446E0,-2.093719784E-3,7.331907749E0,6.642475605E0
9.163897779E0,-9.212367237E-2,7.356134892E0,6.590132713E0
9.211996112E0,-2.261217386E-1,7.382156849E0,6.586244106E0
9.260094341E0,-3.029911816E-1,7.407281399E0,6.451049805E0
9.308192675E0,-2.294118702E-1,7.328916550E0,6.716952324E0
9.356291008E0,-1.199402362E-1,7.338488102E0,6.515954971E0
9.404389237E0,-9.960123897E-2,7.347760201E0,6.502794743E0
9.452487571E0,-3.002992272E-1,7.334001541E0,6.525825500E0
9.500585904E0,-1.618146300E-1,7.365108013E0,6.384948254E0
9.548684133E0,-4.995017126E-2,7.349554539E0,6.490232468E0
9.596782466E0,-7.268198580E-2,7.303493023E0,6.682256222E0
9.644880800E0,1.615155302E-2,7.325028419E0,6.600003242E0
9.692979029E0,-7.477570791E-3,7.314260483E0,6.649055958E0
9.741077362E0,-1.764706708E-2,7.352844715E0,6.610471725E0
9.789175696E0,-1.812563092E-1,7.332505703E0,6.648457527E0
9.837273925E0,-2.617149651E-1,7.355835915E0,6.754340172E0
9.885372258E0,-2.587239444E-1,7.376473904E0,6.394519329E0
9.933470591E0,-2.440679073E-1,7.321439266E0,6.418447495E0
9.981568821E0,-1.642074585E-1,7.286743164E0,6.482156754E0
1.002966715E1,-1.399801224E-1,7.275078297E0,6.590730667E0
1.007776549E1,-1.588236094E-1,7.395616531E0,6.567400932E0
1.012586372E1,-1.677966863E-1,7.378866673E0,6.623931408E0
1.017396205E1,-1.704886109E-1,7.399505138E0,6.692724705E0
1.022206038E1,-1.357926875E-1,7.364809036E0,6.557231426E0
1.027015861E1,-3.379862010E-2,7.316653252E0,6.623332977E0
1.031825695E1,-1.154536903E-1,7.321139812E0,6.507580280E0
1.036635528E1,1.286142133E-2,7.336394310E0,6.382256031E0
1.041445351E1,-1.725823283E-1,7.340282440E0,6.640082836E0
1.046255184E1,-2.898306549E-1,7.345367432E0,6.605985165E0
1.051065018E1,-1.172483116E-1,7.359724045E0,6.528218269E0
1.055874840E1,-2.075773627E-1,7.322635651E0,6.594020844E0
1.060684674E1,-1.265204996E-1,7.379166126E0,6.537789822E0
1.065494507E1,-1.980060786E-1,7.371089935E0,6.628118515E0
1.070304330E1,-1.202393398E-1,7.398607731E0,6.462415695E0
1.075114163E1,-1.375873089E-1,7.341778278E0,6.600003242E0
1.079923997E1,-8.434699476E-2,7.412366390E0,6.460920334E0
1.084733820E1,-3.678964823E-2,7.343273640E0,6.591329098E0
1.089543653E1,-1.277169138E-1,7.412665367E0,6.566802502E0
1.094353486E1,-8.434699476E-2,7.395616531E0,6.383452415E0
1.099163309E1,-8.703892678E-2,7.393223763E0,6.451049805E0
1.103973143E1,-1.283151209E-1,7.398906708E0,6.528218269E0
1.108782976E1,-1.564307809E-1,7.431509018E0,6.401398659E0
1.113592799E1,-9.990034252E-2,7.432705402E0,6.508477688E0
1.118402632E1,-1.435693651E-1,7.401598454E0,6.622136593E0
1.123212465E1,-9.511470050E-2,7.410272598E0,6.457331181E0
1.128022288E1,-1.277169138E-1,7.441379547E0,6.500999928E0
1.132832122E1,-1.184447184E-1,7.421339512E0,6.433103561E0
1.137641945E1,-1.136590764E-1,7.368398190E0,6.516553402E0
1.142451778E1,-9.152546525E-2,7.387241840E0,6.317051888E0
1.147261611E1,-1.286142170E-1,7.341778278E0,6.538986206E0
1.152071434E1,-1.704886109E-1,7.373782158E0,6.584449768E0
1.156881268E1,-1.070788130E-1,7.336992264E0,6.492625237E0
1.161691101E1,-1.833500415E-1,7.345965385E0,6.647859573E0
1.166500924E1,-1.597209126E-1,7.387241840E0,6.713662148E0
1.171310757E1,-4.426721856E-2,7.441678524E0,6.390631199E0
1.176120590E1,-9.122636169E-2,7.393223763E0,6.476772785E0
1.180930413E1,-2.811566554E-2,7.357331276E0,6.461219311E0
1.185740247E1,-2.602194622E-2,7.317550659E0,6.608377934E0
1.190550080E1,-8.315058798E-2,7.342077255E0,6.565307140E0
1.195359903E1,-1.091725305E-1,7.397710323E0,6.490232468E0
1.200169736E1,-1.016949639E-1,7.393223763E0,6.473781586E0
1.204979570E1,-4.336991161E-2,7.365406990E0,6.466902256E0
1.209789393E1,-1.674975827E-2,7.333104134E0,6.629913330E0
1.214599226E1,2.991028305E-4,7.394420147E0,6.447460651E0
1.219409005E1,-8.315058798E-2,7.289434910E0,6.851847649E0
1.224218828E1,-1.172483116E-1,7.372286797E0,6.600003242E0
1.229028661E1,-1.992024779E-1,7.397411346E0,6.461219311E0
1.233838494E1,-8.165507019E-2,7.326523781E0,6.556035042E0
1.238648317E1,-1.824527234E-2,7.316653252E0,6.527021885E0
1.243458151E1,-7.716853172E-2,7.287939548E0,6.669394970E0
1.248267984E1,-5.234299600E-2,7.369893551E0,6.516254425E0
1.253077807E1,-1.585244983E-1,7.332805157E0,6.672685146E0
1.257887640E1,-1.474576890E-1,7.375277519E0,6.537789822E0
1.262697463E1,-1.713859290E-1,7.345666409E0,6.461817741E0
1.267507296E1,-1.010967568E-1,7.363313675E0,6.534499645E0
1.272317130E1,-1.256231871E-2,7.359724045E0,6.541976929E0
1.277126963E1,-6.520441920E-2,7.302296638E0,6.656234264E0
1.281936786E1,-1.151545867E-1,7.327421188E0,6.637690067E0
1.286746619E1,-1.740778536E-1,7.336693287E0,6.605386734E0
1.291556453E1,-9.631111473E-2,7.350451946E0,6.434000969E0
1.296366276E1,-1.360917836E-1,7.344470024E0,6.522834301E0
1.301176109E1,-1.046859920E-1,7.319046497E0,6.612266064E0
1.305985942E1,-9.631111473E-2,7.366603374E0,6.600003242E0
1.310795765E1,-7.357929647E-2,7.339086056E0,6.556932449E0
1.315605598E1,-9.302098304E-2,7.360023499E0,6.519843578E0
1.320415432E1,-9.750752151E-2,7.306783199E0,6.588637352E0
1.325225265E1,-5.084748194E-2,7.339385033E0,6.611967087E0
1.330035088E1,-1.064806059E-1,7.345965385E0,6.549155712E0
1.334844921E1,-1.079761237E-1,7.332206726E0,6.737590313E0
1.339654755E1,-9.810572863E-2,7.300202847E0,6.735496521E0
1.344464588E1,-4.815555736E-2,7.348657608E0,6.369095802E0
1.349274411E1,-1.262213886E-1,7.330711365E0,6.568298340E0
1.354084244E1,-7.208377868E-2,7.335795879E0,6.424130440E0
1.358894078E1,-1.543370634E-1,7.324429989E0,6.602993965E0
1.363703911E1,-9.332008660E-2,7.346563816E0,6.603592396E0
1.368513734E1,-1.372881979E-1,7.284051418E0,6.762415886E0
1.373323567E1,-7.896314561E-2,7.332805157E0,6.587739944E0
1.378133401E1,-8.524430543E-2,7.339684486E0,6.555436611E0
1.382943234E1,6.580262445E-3,7.356134892E0,6.509075642E0
1.387753067E1,-9.960123897E-2,7.333403111E0,6.511169434E0
1.392562890E1,-1.163510010E-1,7.315456867E0,6.540182590E0
1.397372724E1,-3.050848842E-2,7.289434910E0,6.628716946E0
1.402182557E1,8.973085321E-3,7.306184769E0,6.602993965E0
1.406992390E1,8.793623000E-2,7.304689407E0,6.603592396E0
1.411802224E1,-1.130608693E-1,7.301698208E0,6.761518478E0
1.416612057E1,-7.806584239E-2,7.357331276E0,6.649354935E0
1.421421880E1,-9.272187948E-2,7.304390430E0,6.437291145E0
1.426231713E1,-3.499503061E-2,7.256234646E0,6.623332977E0
1.431041546E1,-3.559323773E-2,7.250850677E0,6.677171707E0
1.435851380E1,-5.742774159E-2,7.348956585E0,6.553941250E0
1.440661213E1,-1.058823988E-1,7.339385033E0,6.581758022E0
1.445471046E1,-1.127617657E-1,7.313064098E0,6.656533718E0
1.450280869E1,-5.473581702E-2,7.275975227E0,6.626623154E0
1.455090703E1,1.013958603E-1,7.258926392E0,6.442375660E0
1.459900536E1,-7.716853172E-2,7.302894592E0,6.580860615E0
1.464710369E1,-7.477570791E-3,7.349853992E0,6.598507404E0
1.469520203E1,-1.256231815E-1,7.330711365E0,6.760621071E0
1.474330036E1,-5.443671346E-2,7.334898949E0,6.541378975E0
1.479139869E1,-5.563312769E-2,7.270292282E0,6.704390049E0
1.483949703E1,2.452643216E-2,7.278667450E0,6.584449768E0
1.488759526E1,2.991028305E-4,7.305287361E0,6.634698868E0
1.493569359E1,-7.178467698E-3,7.302296638E0,6.592525482E0
1.498379192E1,-5.982056609E-4,7.297810078E0,6.611967087E0
1.503189026E1,5.084747914E-3,7.289734364E0,6.627520561E0
1.507998859E1,-1.615155302E-2,7.282855034E0,6.657430649E0
1.512808692E1,-3.320041299E-2,7.290631294E0,6.500401974E0
1.517618526E1,-7.088737190E-2,7.286743164E0,6.615556240E0
1.522428359E1,-3.589233849E-3,7.343572617E0,6.532704830E0
1.527238192E1,1.136590727E-2,7.243373394E0,6.701398849E0
1.532048026E1,2.452643216E-2,7.253243446E0,6.643373013E0
1.536857848E1,-2.871387079E-2,7.298109055E0,6.665506363E0
1.541667682E1,-3.379862010E-2,7.328617573E0,6.635596275E0
1.546477515E1,-7.776673883E-2,7.328916550E0,6.652944088E0
1.551287349E1,-2.392822690E-2,7.304390430E0,6.628716946E0
1.556097182E1,-2.811566554E-2,7.264310360E0,6.686443806E0
1.560907015E1,5.264209956E-2,7.301100254E0,6.456134796E0
1.565716849E1,-7.178467698E-3,7.297810078E0,6.679863453E0
1.570526682E1,-1.944168471E-2,7.299903870E0,6.710970402E0
1.575336515E1,1.016949639E-1,7.328318596E0,6.511468410E0
1.580146349E1,5.772684515E-2,7.286743164E0,6.597012043E0
1.584956182E1,-5.383851007E-3,7.290631294E0,6.675077915E0
1.589766015E1,-6.610172242E-2,7.305885792E0,6.557829380E0
1.594575838E1,-2.392822690E-2,7.326224804E0,6.644270420E0
1.599385671E1,-4.606183618E-2,7.332505703E0,6.552146435E0
1.604195505E1,3.290131222E-3,7.304689407E0,6.512664795E0
1.609005338E1,-2.901297435E-2,7.316653252E0,6.652944088E0
1.613815171E1,3.409772366E-2,7.309175968E0,6.512365818E0
1.618625005E1,8.673982322E-2,7.299305439E0,6.501897335E0
1.623434838E1,3.260220960E-2,7.280761242E0,6.657430649E0
1.628244671E1,1.734796353E-2,7.357630730E0,6.607480526E0
1.633054505E1,-1.289133132E-1,7.367800236E0,6.641279221E0
1.637864338E1,-1.354935765E-1,7.360920429E0,6.626922131E0
1.642674171E1,-8.554340899E-2,7.342077255E0,6.554838657E0
1.647484005E1,-7.238288224E-2,7.307680130E0,6.565008163E0
1.652293838E1,8.644071966E-2,7.267600536E0,6.587141514E0
1.657103671E1,7.328019291E-2,7.316354275E0,6.586543560E0
1.661913494E1,8.225327730E-2,7.362416267E0,6.491428852E0
1.666723328E1,-9.062815458E-2,7.313064098E0,6.826723099E0
1.671533161E1,-2.931207791E-2,7.336992264E0,6.685247421E0
1.676342994E1,-4.366901144E-2,7.325028419E0,6.505187511E0
1.681152828E1,7.686942816E-2,7.275377274E0,6.493522644E0
1.685962661E1,1.154536903E-1,7.303194046E0,6.412764549E0
1.690772494E1,6.370890141E-2,7.303493023E0,6.618547440E0
1.695582328E1,-1.286142133E-2,7.229016304E0,6.885945320E0
1.700392161E1,7.477571070E-2,7.290332317E0,6.692126751E0
1.705201994E1,-2.123630047E-2,7.323832035E0,6.581159592E0
1.710011828E1,7.776673418E-3,7.364809036E0,6.423233509E0
1.714821661E1,1.142572835E-1,7.348059177E0,6.376872540E0
1.719631494E1,1.196411322E-3,7.283154011E0,6.876972198E0
1.724441328E1,7.627122104E-2,7.320840836E0,6.706782818E0
1.729251151E1,1.028913707E-1,7.272984505E0,6.553342819E0
1.734060984E1,8.823533356E-2,7.289135933E0,6.480959892E0
1.738870817E1,5.563312769E-2,7.335795879E0,6.533303261E0
1.743680651E1,-1.824527234E-2,7.300202847E0,6.817749977E0
1.748490484E1,7.537391037E-2,7.321738243E0,6.645466805E0
1.753300317E1,3.858426586E-2,7.284350395E0,6.677769661E0
1.758110151E1,2.841476910E-2,7.321439266E0,6.532405853E0
1.762919984E1,2.841476910E-2,7.300202847E0,6.467500687E0
1.767729817E1,1.375873014E-2,7.303792000E0,6.581758022E0
1.772539651E1,-6.879365444E-2,7.329813957E0,6.639783859E0
1.777349484E1,-2.123630047E-2,7.314260483E0,6.639484406E0
1.782159317E1,9.900303930E-2,7.301399231E0,6.524629116E0
1.786969151E1,5.324030295E-2,7.297510624E0,6.629614353E0
1.791778974E1,2.452643216E-2,7.292127132E0,6.637690067E0
1.796588807E1,-1.944168471E-2,7.303792000E0,6.576074600E0
1.801398640E1,8.315058798E-2,7.305287361E0,6.576673031E0
1.806208474E1,3.828516230E-2,7.331010342E0,6.545566559E0
1.811018307E1,1.121635586E-1,7.281658173E0,6.651747704E0
1.815828140E1,3.349951655E-2,7.263113976E0,6.844669342E0
1.820637974E1,2.602194622E-2,7.289135933E0,6.628716946E0
1.825447807E1,5.593222752E-2,7.293622494E0,6.517151356E0
1.830257640E1,8.285148442E-2,7.323532581E0,6.435795784E0
1.835067474E1,3.888336709E-3,7.313363075E0,6.686742783E0
1.839877307E1,5.174478889E-2,7.373483181E0,6.541677952E0
1.844687140E1,-4.007977992E-2,7.334599495E0,6.522236347E0
1.849496974E1,3.140579537E-2,7.272685528E0,6.614359856E0
1.854306807E1,1.055833027E-1,7.265805721E0,6.668198586E0
1.859116640E1,1.049850956E-1,7.288238525E0,6.633801460E0
1.863926474E1,4.456632212E-2,7.302894592E0,6.655336857E0
1.868736307E1,7.178467698E-3,7.372884750E0,6.552445889E0
1.873546140E1,-3.589233849E-3,7.319046497E0,6.705885410E0
1.878355974E1,-5.413761362E-2,7.332206726E0,6.574280262E0
1.883165807E1,5.563312769E-2,7.288238525E0,6.546463490E0
1.887975640E1,5.353940651E-2,7.258926392E0,6.634698868E0
1.892785474E1,1.052841991E-1,7.283154011E0,6.634100914E0
1.897595307E1,7.028916478E-2,7.339983463E0,6.444768906E0
1.902405140E1,2.512463741E-2,7.306783199E0,6.629913330E0
1.907214974E1,3.888336942E-2,7.264310360E0,6.639484406E0
1.912024807E1,7.268198580E-2,7.284350395E0,6.631408691E0
1.916834640E1,1.944168471E-2,7.304090977E0,6.513562202E0
1.921644484E1,-1.854437590E-2,7.316354275E0,6.559325218E0
1.926454317E1,5.982056726E-3,7.335795879E0,6.630810738E0
1.931264151E1,4.636093974E-2,7.326224804E0,6.655037880E0
1.936073984E1,5.742774159E-2,7.298707485E0,6.657131672E0
1.940883817E1,9.032905847E-2,7.310970306E0,6.515058041E0
1.945693661E1,7.148557901E-2,7.339684486E0,6.525825500E0
1.950503494E1,3.469592705E-2,7.302296638E0,6.582355976E0
1.955313328E1,-3.409772366E-2,7.304390430E0,6.670591354E0
1.960123161E1,5.982056609E-4,7.369295597E0,6.567400932E0
1.964933005E1,1.118644550E-1,7.329813957E0,6.472585201E0
1.969742838E1,-7.776673418E-3,7.327720165E0,6.652047157E0
1.974552671E1,1.256231871E-2,7.292725086E0,6.578168392E0
1.979362515E1,9.541380405E-2,7.248457909E0,6.615556240E0
1.984172349E1,7.387840003E-2,7.268497944E0,6.613761902E0
1.988982192E1,3.290131222E-3,7.320541859E0,6.630810738E0
1.993792026E1,-5.174478889E-2,7.329813957E0,6.572186470E0
1.998601869E1,-1.794617064E-2,7.309474945E0,6.600003242E0
2.003411703E1,1.794617064E-2,7.251748085E0,6.691528320E0
2.008221546E1,6.879365444E-2,7.278069019E0,6.639484406E0
2.013031380E1,1.202393398E-1,7.309474945E0,6.505486488E0
2.017841224E1,1.519442350E-1,7.320242882E0,6.440880299E0
2.022651057E1,1.974078640E-2,7.309175968E0,6.678069115E0
2.027460901E1,-7.298108935E-2,7.290631294E0,6.763014317E0
2.032270744E1,-8.973085321E-3,7.379764080E0,6.479464531E0
2.037080578E1,-6.580262445E-3,7.280761242E0,6.620042801E0
2.041890421E1,3.409772366E-2,7.254140854E0,6.510272026E0
2.046700255E1,9.541380405E-2,7.275676250E0,6.600900173E0
2.051510098E1,2.632104978E-2,7.343572617E0,6.693323135E0
2.056319942E1,3.499503061E-2,7.322635651E0,6.613163471E0
2.061129786E1,5.443671346E-2,7.311568737E0,6.548856258E0
2.065939619E1,9.032905847E-2,7.265207767E0,6.664908409E0
2.070749463E1,3.738785535E-2,7.294220924E0,6.682256222E0
2.075559307E1,3.888336942E-2,7.332505703E0,6.514459610E0
2.080369151E1,-2.333002165E-2,7.327720165E0,6.534798622E0
2.085178994E1,3.349951655E-2,7.332206726E0,6.429514408E0
2.089988838E1,4.187439755E-2,7.230511665E0,6.783652306E0
2.094798671E1,6.939185411E-2,7.287939548E0,6.649653912E0
2.099608515E1,-5.383851007E-3,7.319345474E0,6.705287457E0
2.104418359E1,3.290131222E-3,7.358827114E0,6.518348217E0
2.109228203E1,-2.691925503E-3,7.286444187E0,6.527320862E0
2.114038046E1,8.344969153E-2,7.337291718E0,6.406782627E0
2.118847890E1,1.187438220E-1,7.246065140E0,6.658926487E0
2.123657734E1,1.256231871E-2,7.333104134E0,6.687041759E0
2.128467578E1,-8.614161611E-2,7.320242882E0,6.614659309E0
2.133277421E1,1.052841991E-1,7.325327396E0,6.605686188E0
2.138087265E1,7.986045629E-2,7.255636692E0,6.596413612E0
2.142897109E1,4.516452923E-2,7.305885792E0,6.516254425E0
2.147706953E1,-4.875376076E-2,7.331907749E0,6.601498604E0
2.152516796E1,2.093719877E-2,7.379166126E0,6.552146435E0
2.157326640E1,-8.973084623E-4,7.285845757E0,6.702894211E0
2.162136484E1,9.511470050E-2,7.271489143E0,6.624529362E0
2.166946328E1,9.840483218E-2,7.281957626E0,6.600601196E0
2.171756182E1,7.716853172E-2,7.307979584E0,6.488736629E0
2.176566026E1,-5.054837838E-2,7.346862793E0,6.582654953E0
2.181375869E1,-1.256231871E-2,7.309175968E0,6.629913330E0
2.186185713E1,5.084747914E-3,7.345067978E0,6.588637352E0
2.190995557E1,3.110669367E-2,7.275377274E0,6.636493683E0
2.195805401E1,7.597211748E-2,7.264011383E0,6.618547440E0
2.200615244E1,6.520441920E-2,7.295417309E0,6.578467846E0
2.205425099E1,-3.918246925E-2,7.323832035E0,6.551847458E0
2.210234942E1,5.503492057E-2,7.330112934E0,6.638288021E0
2.215044786E1,1.283151209E-1,7.313961506E0,6.628716946E0
2.219854630E1,1.274178028E-1,7.302296638E0,6.671787739E0
2.224664474E1,2.228316069E-1,7.294519901E0,6.532704830E0
2.229474317E1,1.926222295E-1,7.238886833E0,6.565307140E0
2.234284171E1,7.956135273E-2,7.288238525E0,6.604190350E0
2.239094015E1,-4.366901144E-2,7.309773922E0,6.720541477E0
2.243903859E1,-1.824527234E-2,7.320541859E0,6.626025200E0
2.248713703E1,5.593222752E-2,7.336394310E0,6.484848499E0
2.253523557E1,4.725824669E-2,7.285247803E0,6.592226505E0
2.258333401E1,1.187438220E-1,7.255935669E0,6.678667068E0
2.263143244E1,1.130608693E-1,7.250252724E0,6.724429607E0
2.267953088E1,1.423729509E-1,7.369295597E0,6.461219311E0
2.272762942E1,4.875376076E-2,7.245167732E0,6.726822853E0
2.277572786E1,1.914258115E-2,7.336693287E0,6.607779503E0
2.282382630E1,-2.422732860E-2,7.289135933E0,6.574280262E0
2.287192474E1,1.286142170E-1,7.256533623E0,6.630511761E0
2.292002328E1,9.631111473E-2,7.269095898E0,6.605686188E0
2.296812171E1,9.541380405E-2,7.319345474E0,6.556932449E0
2.301622015E1,2.452643216E-2,7.371688366E0,6.553342819E0
2.306431859E1,7.836493850E-2,7.325028419E0,6.631408691E0
2.311241713E1,1.489532143E-1,7.293622494E0,6.632306099E0
2.316051557E1,1.043868884E-1,7.265207767E0,6.648457527E0
2.320861401E1,1.196411327E-1,7.366902828E0,6.486343861E0
2.325671255E1,-8.973085321E-3,7.344171047E0,6.553043842E0
2.330481099E1,-2.063809521E-2,7.342974663E0,6.650551319E0
2.335290942E1,3.320041299E-2,7.276274681E0,6.731608391E0
2.340100786E1,1.100698411E-1,7.256234646E0,6.554838657E0
2.344910640E1,9.631111473E-2,7.273582458E0,6.631708145E0
2.349720484E1,7.447660714E-2,7.290930748E0,6.480660915E0
2.354530328E1,1.256231871E-2,7.293921471E0,6.585646152E0
2.359340182E1,-5.832505226E-2,7.266404152E0,6.671787739E0
2.364150026E1,4.127619043E-2,7.289434910E0,6.666104794E0
2.368959869E1,1.136590764E-1,7.291827679E0,6.595815659E0
2.373769713E1,2.039881349E-1,7.314260483E0,6.455237389E0
2.378579567E1,-1.854437590E-2,7.273881912E0,6.807879448E0
2.383389411E1,7.028916478E-2,7.325327396E0,6.674479485E0
2.388199255E1,1.028913707E-1,7.279564857E0,6.563512325E0
2.393009109E1,1.854437590E-1,7.187141895E0,6.690331936E0
2.397818953E1,1.408774406E-1,7.249355316E0,6.718447685E0
2.402628796E1,6.610172242E-2,7.265805721E0,6.680162430E0
2.407438640E1,1.190429255E-1,7.362416267E0,6.501298904E0
2.412248494E1,-3.439682722E-2,7.279863834E0,6.747759819E0
2.417058338E1,1.028913707E-1,7.290631294E0,6.684948444E0
2.421868182E1,1.477568001E-1,7.261319637E0,6.604190350E0
2.426678026E1,1.573280841E-1,7.271489143E0,6.665805817E0
2.431487880E1,1.259222925E-1,7.252346516E0,6.599703789E0
2.436297724E1,1.573280841E-1,7.248457909E0,6.730412006E0
2.441107567E1,1.013958603E-1,7.270591736E0,6.578467846E0
2.445917411E1,1.333998591E-1,7.312466145E0,6.588038921E0
2.450727265E1,3.619144112E-2,7.295117855E0,6.640980244E0
2.455537109E1,6.520441920E-2,7.290033340E0,6.640681267E0
2.460346953E1,6.939185411E-2,7.257431030E0,6.649055958E0
2.465156796E1,7.836493850E-2,7.243672371E0,6.580561161E0
2.469966651E1,7.028916478E-2,7.264310360E0,6.537789822E0
2.474776494E1,1.369891018E-1,7.350152969E0,6.358028889E0
2.479586338E1,4.486542568E-2,7.258328438E0,6.829713821E0
2.484396182E1,1.214357466E-1,7.290033340E0,6.786045074E0
2.489206026E1,9.391828626E-2,7.249355316E0,6.673283100E0
2.494015880E1,1.944168359E-1,7.226623535E0,6.600302219E0
2.498825724E1,-6.879365072E-3,7.212266445E0,6.771986961E0
2.503635567E1,4.187439755E-2,7.262216568E0,6.647261143E0
2.508445411E1,8.165507019E-2,7.300501823E0,6.669394970E0
2.513255255E1,7.597211748E-2,7.244868755E0,6.642475605E0
2.518065109E1,1.094716340E-1,7.247560501E0,6.658926487E0
2.522874953E1,1.172483116E-1,7.239484787E0,6.678667068E0
2.527684796E1,1.657029688E-1,7.263712406E0,6.629314899E0
2.532494640E1,9.720841795E-2,7.285546780E0,6.512964249E0
2.537304484E1,1.091725305E-1,7.304689407E0,6.680461884E0
2.542114328E1,1.136590764E-1,7.305287361E0,6.722036839E0
2.546924182E1,1.211366430E-1,7.310372353E0,6.645167351E0
2.551734026E1,1.881356835E-1,7.280761242E0,6.587141514E0
2.556543869E1,1.537388563E-1,7.263412952E0,6.575775623E0
2.561353713E1,9.601201117E-2,7.251748085E0,6.690032959E0
2.566163557E1,6.131608039E-2,7.260422230E0,6.645466805E0
2.570973401E1,1.055833027E-1,7.307082176E0,6.538387775E0
2.575783255E1,-6.281159353E-3,7.312466145E0,6.659225464E0
2.580593099E1,8.225327730E-2,7.288238525E0,6.697510719E0
2.585402942E1,4.007977992E-2,7.310671329E0,6.634100914E0
2.590212786E1,1.752742529E-1,7.260122776E0,6.561119556E0
2.595022630E1,1.716850251E-1,7.202396393E0,6.589235306E0
2.599832474E1,1.130608693E-1,7.253243446E0,6.690930367E0
2.604642317E1,9.780662507E-2,7.298408031E0,6.731309414E0
2.609452161E1,9.990034252E-2,7.390532017E0,6.388537407E0
2.614262005E1,2.482553571E-2,7.292426109E0,6.692126751E0
2.619071859E1,1.734796464E-1,7.226025105E0,6.843173504E0
2.623881703E1,2.545365095E-1,7.197311401E0,6.670890331E0
2.628691546E1,1.974078715E-1,7.245766163E0,6.567699909E0
2.633501390E1,8.554340899E-2,7.272386074E0,6.575476646E0
2.638311234E1,5.563312769E-2,7.288537979E0,6.704988003E0
2.643121078E1,-5.982056609E-4,7.292426109E0,6.749554634E0
2.647930921E1,1.052841991E-1,7.281060219E0,6.704390049E0
2.652740765E1,1.034895778E-1,7.226324558E0,6.671189308E0
2.657550609E1,1.654038578E-1,7.234101295E0,6.498906136E0
2.662360453E1,1.606182158E-1,7.209873676E0,6.490830421E0
2.667170296E1,5.054837838E-2,7.262516022E0,6.661019802E0
2.671980140E1,3.888336709E-3,7.259225845E0,6.934998035E0
2.676789984E1,9.810572863E-2,7.304090977E0,6.658926487E0
2.681599828E1,1.247258782E-1,7.319644451E0,6.608078957E0
2.686409671E1,1.938186288E-1,7.231409073E0,6.616453648E0
2.691219526E1,2.512463629E-1,7.249654293E0,6.615855694E0
2.696029369E1,1.274178028E-1,7.217351437E0,6.751947403E0
2.700839213E1,1.402792335E-1,7.246364117E0,6.679863453E0
2.705649057E1,5.742774159E-2,7.291528702E0,6.647859573E0
2.710458901E1,7.627122104E-2,7.304689407E0,6.690631390E0
2.715268744E1,1.094716340E-1,7.278368473E0,6.589235306E0
2.720078588E1,5.234299600E-2,7.239484787E0,6.582654953E0
2.724888432E1,7.836493850E-2,7.211369038E0,6.701997280E0
2.729698276E1,9.870393574E-2,7.240382195E0,6.629913330E0
2.734508119E1,9.990034252E-2,7.296613693E0,6.655336857E0
2.739317953E1,2.602194622E-2,7.298707485E0,6.806384087E0
2.744127796E1,8.135596663E-2,7.298109055E0,6.698407650E0
2.748937640E1,5.024927482E-2,7.250850677E0,6.597311020E0
2.753747484E1,1.486541033E-1,7.262814999E0,6.524629116E0
2.758557328E1,2.614158690E-1,7.257730007E0,6.516254425E0
2.763367171E1,1.516451389E-1,7.260721207E0,6.646962166E0
2.768177015E1,2.033899277E-1,7.279564857E0,6.703492641E0
2.772986859E1,1.438684613E-1,7.308278561E0,6.714559555E0
2.777796703E1,8.075776696E-2,7.291528702E0,6.618248463E0
2.782606546E1,1.980060786E-1,7.267301559E0,6.614359856E0
2.787416390E1,1.489532143E-1,7.255935669E0,6.563811779E0
2.792226234E1,2.120639086E-1,7.245167732E0,6.580860615E0
2.797036078E1,8.135596663E-2,7.281060219E0,6.739983082E0
2.801845921E1,1.471585929E-1,7.325626373E0,6.573083878E0
2.806655765E1,7.836493850E-2,7.264908791E0,6.664609432E0
2.811465609E1,2.027917206E-1,7.240083218E0,6.738188744E0
2.816275442E1,7.238288224E-2,7.256833076E0,6.828517437E0
2.821085286E1,1.220339537E-1,7.288836956E0,6.500102520E0
2.825895130E1,1.480558962E-1,7.320242882E0,6.564110756E0
2.830704974E1,5.772684515E-2,7.249953270E0,6.795018196E0
2.835514817E1,2.075773627E-1,7.253841877E0,6.624828815E0
2.840324661E1,1.558325738E-1,7.224529743E0,6.615556240E0
2.845134505E1,1.899302900E-1,7.311269760E0,6.555137634E0
2.849944348E1,1.235294715E-1,7.287640572E0,6.569793701E0
2.854754182E1,1.378864050E-1,7.282256603E0,6.597311020E0
2.859564026E1,8.374879509E-2,7.249654293E0,6.726822853E0
2.864373869E1,1.408774406E-1,7.288836956E0,6.650850773E0
2.869183713E1,5.623133108E-2,7.268796921E0,6.749554634E0
2.873993557E1,8.823533356E-2,7.283154011E0,6.613761902E0
2.878803401E1,1.136590764E-1,7.288836956E0,6.511169434E0
2.883613234E1,1.253240854E-1,7.274479866E0,6.667002201E0
2.888423078E1,4.845465720E-2,7.258029461E0,6.696912289E0
2.893232921E1,1.166501045E-1,7.252645493E0,6.692724705E0
2.898042765E1,1.752742529E-1,7.264908791E0,6.591329098E0
2.902852609E1,1.214357466E-1,7.277770042E0,6.585646152E0
2.907662442E1,1.106680464E-2,7.247560501E0,6.728916168E0
2.912472286E1,2.422732860E-2,7.298707485E0,6.582355976E0
2.917282130E1,2.392822644E-3,7.228417873E0,6.751947403E0
2.922091974E1,1.277169138E-1,7.230511665E0,6.614659309E0
2.926901817E1,2.901297435E-2,7.234400272E0,6.773482800E0
2.931711651E1,4.067798331E-2,7.272984505E0,6.669693947E0
2.936521494E1,9.661021084E-2,7.323532581E0,6.542575359E0
2.941331338E1,7.836493850E-2,7.232904434E0,6.776772976E0
2.946141171E1,9.272187948E-2,7.207480907E0,6.696912289E0
2.950951015E1,1.704886109E-1,7.203891754E0,6.679863453E0
2.955760859E1,3.948157281E-2,7.243672371E0,6.636493683E0
2.960570703E1,-6.281159073E-2,7.292426109E0,6.611967087E0
2.965380536E1,-1.142572835E-1,7.290332317E0,6.756732941E0
2.970190380E1,6.999006122E-2,7.271189690E0,6.658627033E0
2.975000224E1,1.375873089E-1,7.219744205E0,6.678966045E0
2.979810057E1,1.651047617E-1,7.172784805E0,6.674180508E0
2.984619901E1,1.268195957E-1,7.194619656E0,6.643074036E0
2.989429744E1,9.930214286E-2,7.252047062E0,6.626025200E0
2.994239588E1,4.037888348E-2,7.285247803E0,6.620042801E0
2.999049421E1,3.559323773E-2,7.297510624E0,6.754639149E0
3.003859265E1,9.541380405E-2,7.184749126E0,6.891329288E0
3.008669109E1,1.737787426E-1,7.183851719E0,6.641877651E0
3.013478942E1,8.793623000E-2,7.234400272E0,6.512664795E0
3.018288786E1,4.396811500E-2,7.208378315E0,6.629015923E0
3.023098630E1,-6.490531564E-2,7.258328438E0,6.760322094E0
3.027908463E1,3.948157281E-2,7.248457909E0,6.746563435E0
3.032718307E1,-3.888336709E-3,7.178467751E0,6.884748936E0
3.037528140E1,4.606183618E-2,7.165008068E0,6.726822853E0
3.042337984E1,-2.213360928E-2,7.237390995E0,6.704091072E0
3.047147828E1,-2.991028363E-3,7.237092018E0,6.611369133E0
3.051957661E1,6.879365072E-3,7.263113976E0,6.645167351E0
3.056767505E1,-7.118647546E-2,7.180262566E0,6.856334209E0
3.061577349E1,3.020938672E-2,7.232605457E0,6.721139908E0
3.066387182E1,1.944168471E-2,7.206284523E0,6.641578197E0
3.071197026E1,1.624128371E-1,7.208976269E0,6.687640190E0
3.076006859E1,7.238288224E-2,7.185347080E0,6.713363171E0
3.080816703E1,4.995017126E-2,7.211369038E0,6.671787739E0
3.085626536E1,-5.533402413E-2,7.213163853E0,6.792325974E0
3.090436380E1,1.734796353E-2,7.265207767E0,6.694818497E0
3.095246224E1,5.383851007E-3,7.240083218E0,6.697809696E0
3.100056057E1,7.387840003E-2,7.223931789E0,6.685845375E0
3.104865901E1,1.363908947E-1,7.198208809E0,6.653243542E0
3.109675734E1,1.884347796E-1,7.199106216E0,6.662814617E0
3.114485578E1,2.452643216E-2,7.225726128E0,6.682854652E0
3.119295411E1,4.007977992E-2,7.239784241E0,6.768397808E0
3.124105255E1,-1.316052489E-2,7.259225845E0,6.683752060E0
3.128915088E1,1.253240854E-1,7.279564857E0,6.474977970E0
3.133724932E1,-4.666004330E-2,7.195816040E0,6.851548672E0
3.138534765E1,4.007977992E-2,7.234998226E0,6.735197544E0
3.143344609E1,8.404789865E-2,7.186543941E0,6.766304016E0
3.148154442E1,1.671984792E-1,7.165008068E0,6.754340172E0
3.152964286E1,1.465603858E-1,7.231708050E0,6.660720825E0
3.157774119E1,2.153540403E-2,7.217351437E0,6.659823418E0
3.162583963E1,4.845465720E-2,7.256833076E0,6.614659309E0
3.167393796E1,-3.050848842E-2,7.200601578E0,6.707680225E0
3.172203640E1,5.682953820E-2,7.204489708E0,6.738786697E0
3.177013474E1,4.426721856E-2,7.179365158E0,6.783951283E0
3.181823317E1,2.057827413E-1,7.227221489E0,6.660421848E0
3.186633151E1,1.157527938E-1,7.176673412E0,6.775875568E0
3.191442994E1,8.584251255E-2,7.197610378E0,6.736992359E0
3.196252828E1,3.290131316E-2,7.227819920E0,6.709175587E0
3.201062671E1,6.311069429E-2,7.226324558E0,6.710670948E0
3.205872505E1,6.400800496E-2,7.226922512E0,6.693024158E0
3.210682348E1,7.956135273E-2,7.206882477E0,6.726822853E0
3.215492182E1,1.447657645E-1,7.209873676E0,6.690032959E0
3.220302015E1,1.142572835E-1,7.199106216E0,6.808477879E0
3.225111859E1,-8.075776510E-3,7.244569778E0,6.717550278E0
3.229921692E1,2.662015148E-2,7.268198967E0,6.625725746E0
3.234731536E1,6.699903309E-2,7.218547821E0,6.675975323E0
3.239541369E1,7.956135273E-2,7.240083218E0,6.503392696E0
3.244351203E1,-7.776673418E-3,7.216454029E0,6.739385128E0
3.249161046E1,6.640082598E-2,7.234400272E0,6.684948444E0
3.253970880E1,6.460621208E-2,7.197909832E0,6.624828815E0
3.258780724E1,8.554340899E-2,7.182057381E0,6.734001160E0
3.263590557E1,7.776673418E-3,7.213163853E0,6.864409924E0
3.268400401E1,-1.226321608E-2,7.260422230E0,6.714260101E0
3.273210234E1,4.785645381E-2,7.289434910E0,6.577570438E0
3.278020067E1,7.387840003E-2,7.213762283E0,6.757929325E0
3.282829911E1,1.561316848E-1,7.163512707E0,6.811468601E0
3.287639744E1,1.645065546E-1,7.179066181E0,6.691229343E0
3.292449578E1,1.142572835E-1,7.208976269E0,6.712166786E0
3.297259421E1,-3.080759197E-2,7.261319637E0,6.552445889E0
3.302069255E1,2.991028363E-3,7.260721207E0,6.632605076E0
3.306879098E1,6.759724021E-2,7.234699249E0,6.723532677E0
3.311688932E1,6.729813665E-2,7.176673412E0,6.789036274E0
3.316498765E1,7.896314561E-2,7.216155052E0,6.731608391E0
3.321308609E1,-1.106680464E-2,7.238587379E0,6.625127792E0
3.326118442E1,2.392822644E-3,7.261618614E0,6.667600155E0
3.330928276E1,3.349951655E-2,7.233801842E0,6.751648426E0
3.335738119E1,2.452643216E-2,7.211967468E0,6.755237579E0
3.340547953E1,-3.678964823E-2,7.238886833E0,6.632306099E0
3.345357796E1,1.824527234E-2,7.231409073E0,6.660421848E0
3.350167630E1,4.965107143E-2,7.260422230E0,6.572485447E0
3.354977463E1,-6.999006122E-2,7.236194611E0,6.823133945E0
3.359787307E1,6.101697683E-2,7.269395351E0,6.653542519E0
3.364597140E1,-3.230310604E-2,7.232007504E0,6.646962166E0
3.369406974E1,1.070788130E-1,7.202396393E0,6.638886452E0
3.374216817E1,7.088737190E-2,7.231110096E0,6.707680225E0
3.379026651E1,1.734796353E-2,7.255337238E0,6.568896294E0
3.383836484E1,-2.512463741E-2,7.269993305E0,6.669394970E0
3.388646328E1,1.136590727E-2,7.227819920E0,6.676274300E0
3.393456161E1,-5.114658549E-2,7.227819920E0,6.779165745E0
3.398265994E1,2.392822690E-2,7.236194611E0,6.777071953E0
3.403075828E1,1.615155302E-2,7.247261524E0,6.649055958E0
3.407885671E1,-5.383851007E-3,7.288238525E0,6.512066841E0
3.412695505E1,-1.196411345E-2,7.258926392E0,6.688537598E0
3.417505338E1,8.524430543E-2,7.240083218E0,6.750451565E0
3.422315182E1,3.110669367E-2,7.232605457E0,6.732804775E0
3.427125015E1,1.196411322E-3,7.248756886E0,6.722934246E0
3.431934848E1,2.871387079E-2,7.249056339E0,6.553043842E0
3.436744682E1,8.644071966E-2,7.220043182E0,6.670890331E0
3.441554526E1,9.391828626E-2,7.225726128E0,6.634998322E0
3.446364359E1,8.913264424E-2,7.213762283E0,6.724729061E0
3.451174192E1,1.399801224E-1,7.212565422E0,6.718746662E0
3.455984036E1,7.776673883E-2,7.223034382E0,6.680162430E0
3.460793869E1,1.205384433E-1,7.242475986E0,6.637091637E0
3.465603703E1,3.529413417E-2,7.225726128E0,6.754639149E0
3.470413536E1,9.062815458E-2,7.253243446E0,6.722036839E0
3.475223380E1,9.421738982E-2,7.181757927E0,6.743871689E0
3.480033213E1,1.651047617E-1,7.157530785E0,6.760023117E0
3.484843046E1,1.106680483E-1,7.181458950E0,6.770491600E0
3.489652880E1,-0.000000000E0,7.264310360E0,6.582355976E0
3.494462724E1,-9.870393202E-3,7.260721207E0,6.644868374E0
3.499272557E1,9.511470050E-2,7.232306480E0,6.667002201E0
3.504082390E1,6.490531564E-2,7.135396957E0,6.913762093E0
3.508892224E1,1.375873089E-1,7.171887875E0,6.735197544E0
3.513702067E1,1.013958603E-1,7.203592777E0,6.748956203E0
3.518511901E1,1.974078640E-2,7.244270325E0,6.648158550E0
3.523321734E1,-3.559323773E-2,7.231409073E0,6.647859573E0
3.528131567E1,5.413761362E-2,7.225128174E0,6.657730103E0
3.532941411E1,9.571290761E-2,7.189534664E0,6.684648991E0
3.537751244E1,1.217348501E-1,7.176074982E0,6.833303452E0
3.542561078E1,1.390828192E-1,7.202396393E0,6.734001160E0
3.547370911E1,1.100698411E-1,7.210472107E0,6.758826733E0
3.552180744E1,8.075776696E-2,7.192525864E0,6.708278179E0
3.556990578E1,2.632104978E-2,7.201797962E0,6.665506363E0
3.561800421E1,6.699903309E-2,7.195816040E0,6.683153629E0
3.566610255E1,1.477568001E-1,7.197012424E0,6.649055958E0
3.571420088E1,1.740778536E-1,7.197311401E0,6.738487720E0
3.576229921E1,2.383849621E-1,7.152445793E0,6.838088989E0
3.581039755E1,2.213360928E-2,7.227520943E0,6.844369888E0
3.585849588E1,3.888336942E-2,7.244270325E0,6.692425728E0
3.590659432E1,3.948157281E-2,7.171289444E0,6.786643028E0
3.595469265E1,2.353939265E-1,7.140182972E0,6.517450809E0
3.600279099E1,1.606182158E-1,7.121339321E0,6.762714863E0
3.605088932E1,1.872383654E-1,7.160820961E0,6.725626469E0
3.609898765E1,1.363908947E-1,7.252346516E0,6.734599113E0
3.614708599E1,4.965107143E-2,7.238886833E0,6.838088989E0
3.619518442E1,1.079761237E-1,7.177869797E0,6.828218460E0
3.624328276E1,2.638086975E-1,7.175477028E0,6.542874336E0
3.629138109E1,2.162513435E-1,7.101299286E0,6.794120789E0
3.633947942E1,1.181456149E-1,7.137789726E0,6.754340172E0
3.638757776E1,-6.281159353E-3,7.217650414E0,6.796513557E0
3.643567609E1,-3.619144112E-2,7.238886833E0,6.834798813E0
3.648377453E1,1.585244946E-2,7.203891754E0,6.785446644E0
3.653187286E1,2.201396823E-1,7.126423836E0,6.776772976E0
3.657997119E1,1.782652885E-1,7.089634418E0,6.406184196E0
3.662806953E1,1.016949639E-1,7.096513748E0,6.767500877E0
3.667616786E1,1.734796353E-2,7.147361279E0,7.064210415E0
3.672426619E1,3.589234129E-2,7.207480907E0,6.948457718E0
3.677236453E1,1.501496136E-1,7.179963589E0,6.840780735E0
3.682046296E1,1.118644550E-1,7.108777046E0,6.693622112E0
3.686856130E1,2.464607358E-1,7.101299286E0,6.371488571E0
3.691665963E1,1.145563871E-1,7.092625618E0,6.735197544E0
3.696475796E1,8.913264424E-2,7.177271366E0,7.056733131E0
3.701285630E1,1.489532143E-1,7.194320202E0,6.911069870E0
3.706095463E1,1.908276081E-1,7.189833641E0,6.739385128E0
3.710905307E1,2.757728100E-1,7.160820961E0,6.791728020E0
3.715715140E1,2.216351926E-1,7.132406235E0,6.779464722E0
3.720524974E1,3.640081584E-1,7.149455070E0,6.555137634E0
3.725334807E1,2.398804724E-1,7.112366199E0,6.773183823E0
3.730144640E1,1.827518344E-1,7.125526905E0,6.855436802E0
3.734954484E1,2.060818523E-1,7.122834682E0,6.925725937E0
3.739764317E1,3.005983531E-1,7.161718369E0,6.798906326E0
3.744574151E1,1.465603858E-1,7.150352478E0,6.816553593E0
3.749383984E1,1.695913076E-1,7.147959232E0,6.725327015E0
3.754193817E1,1.567298770E-1,7.130312443E0,6.739983082E0
3.759003661E1,1.414756328E-1,7.077670097E0,6.834499836E0
3.763813494E1,4.695914313E-2,7.116553783E0,6.871289253E0
3.768623328E1,1.175474152E-1,7.159923553E0,6.710371971E0
3.773433161E1,1.387837082E-1,7.226922512E0,6.541677952E0
3.778243005E1,1.893320978E-1,7.112067223E0,6.864708900E0
3.783052838E1,2.554338276E-1,7.055536747E0,6.973582268E0
3.787862671E1,1.782652885E-1,7.100701332E0,6.731309414E0
3.792672515E1,1.001994461E-1,7.135097980E0,6.772286415E0
3.797482348E1,7.597211748E-2,7.189534664E0,6.692724705E0
3.802292182E1,6.699903309E-2,7.113861561E0,6.840780735E0
3.807102026E1,1.585244983E-1,7.147660255E0,6.752246380E0
3.811911859E1,1.956132501E-1,7.084250450E0,6.880262375E0
3.816721692E1,1.833500415E-1,7.106384277E0,6.822236538E0
3.821531536E1,1.812563092E-1,7.108478069E0,6.893123627E0
3.826341369E1,1.896311939E-1,7.147361279E0,6.775875568E0
3.831151203E1,1.740778536E-1,7.168298244E0,6.734001160E0
3.835961046E1,1.471585929E-1,7.146762848E0,6.799803734E0
3.840770880E1,1.582254022E-1,7.107281685E0,6.833901405E0
3.845580724E1,2.258226424E-1,7.119843960E0,6.759424686E0
3.850390557E1,2.306082845E-1,7.117151737E0,6.803392887E0
3.855200390E1,1.977069676E-1,7.121339321E0,6.740880489E0
3.860010234E1,1.519442350E-1,7.147660255E0,6.801598549E0
3.864820067E1,1.127617657E-1,7.192226887E0,6.738786697E0
3.869629911E1,8.404789865E-2,7.182356358E0,6.745965004E0
3.874439744E1,1.908276081E-1,7.147062302E0,6.855436802E0
3.879249588E1,2.506481707E-1,7.166503906E0,6.692126751E0
3.884059421E1,2.174477577E-1,7.143173695E0,6.784250259E0
3.888869265E1,1.881356835E-1,7.184150696E0,6.719644070E0
3.893679098E1,1.695913076E-1,7.150651455E0,6.691229343E0
3.898488942E1,2.572284341E-1,7.126124859E0,6.639783859E0
3.903298776E1,1.609173268E-1,7.096513748E0,6.771986961E0
3.908108619E1,2.324029058E-1,7.127022266E0,6.810571671E0
3.912918453E1,1.573280841E-1,7.139285564E0,6.911069870E0
3.917728296E1,2.431706041E-1,7.187141895E0,6.730710983E0
3.922538130E1,2.554338276E-1,7.071688175E0,6.886842728E0
3.927347974E1,3.897309899E-1,7.068996429E0,6.704091072E0
3.932157817E1,2.422732860E-1,7.042376041E0,6.925426960E0
3.936967651E1,1.319043487E-1,7.113263607E0,6.817749977E0
3.941777494E1,1.998006850E-1,7.201498985E0,6.672086716E0
3.946587328E1,1.342971772E-1,7.117750168E0,6.926623344E0
3.951397171E1,2.503490746E-1,7.077371120E0,6.962814808E0
3.956207015E1,3.846462369E-1,7.066304207E0,6.742675304E0
3.961016859E1,3.029911816E-1,7.055536747E0,6.855137825E0
3.965826692E1,1.456630826E-1,7.090531826E0,6.779464722E0
3.970636536E1,1.456630826E-1,7.138986588E0,6.747460842E0
3.975446380E1,1.223330572E-1,7.131209850E0,6.810870647E0
3.980256224E1,1.887338907E-1,7.114459991E0,6.840182781E0
3.985066067E1,2.365903407E-1,7.101299286E0,6.800102711E0
3.989875911E1,2.835494876E-1,7.058228493E0,6.770491600E0
3.994685755E1,2.536391914E-1,7.073183537E0,6.844070911E0
3.999495599E1,1.627119333E-1,7.117750168E0,6.799504757E0
4.004305442E1,1.570289880E-1,7.104888439E0,6.766005039E0
4.009115286E1,1.704886109E-1,7.114758968E0,6.761817455E0
4.013925130E1,2.428714931E-1,7.100401878E0,6.762714863E0
4.018734984E1,1.899302900E-1,7.058228493E0,6.973283291E0
4.023544828E1,2.482553422E-1,7.119544506E0,6.757929325E0
4.028354682E1,2.027917206E-1,7.114459991E0,6.742675304E0
4.033164526E1,2.781656384E-1,7.057630539E0,6.771090031E0
4.037974380E1,3.224328458E-1,7.088438034E0,6.761817455E0
4.042784234E1,2.054836452E-1,7.120142937E0,6.722036839E0
4.047594088E1,1.555334777E-1,7.146762848E0,6.645765781E0
4.052403942E1,2.228316069E-1,7.119843960E0,6.818647385E0
4.057213796E1,1.995015889E-1,7.090531826E0,6.925426960E0
4.062023651E1,1.899302900E-1,7.085746288E0,6.860820770E0
4.066833515E1,2.656033039E-1,7.112067223E0,6.693921566E0
4.071643369E1,2.147558331E-1,7.140481949E0,6.656234264E0
4.076453234E1,1.561316848E-1,7.117750168E0,6.776174545E0
4.081263088E1,2.231307179E-1,7.183851719E0,6.610770702E0
4.086072953E1,2.132603228E-1,7.116852760E0,6.803392887E0
4.090882817E1,2.769692242E-1,7.086942673E0,6.763612270E0
4.095692682E1,2.994019389E-1,7.094120979E0,6.681658268E0
4.100502546E1,2.470589429E-1,7.080661297E0,6.760621071E0
4.105312411E1,2.685943544E-1,7.109973431E0,6.707380772E0
4.110122286E1,1.564307809E-1,7.160521984E0,6.736393929E0
4.114932161E1,1.941177398E-1,7.142276287E0,6.798008919E0
4.119742026E1,2.635096014E-1,7.150651455E0,6.657131672E0
4.124551901E1,2.270190418E-1,7.076174736E0,6.734599113E0
4.129361776E1,2.371885478E-1,7.115656376E0,6.803093910E0
4.134171651E1,1.995015889E-1,7.071389198E0,6.756732941E0
4.138981536E1,3.020938635E-1,7.119245529E0,6.572485447E0
4.143791411E1,1.549352705E-1,7.058228493E0,6.881757736E0
4.148601296E1,2.078764737E-1,7.116553783E0,6.820741177E0
4.153411171E1,6.311069429E-2,7.108478069E0,6.781857491E0
4.158221057E1,2.183450609E-1,7.177869797E0,6.611369133E0
4.163030942E1,1.271187067E-1,7.074978352E0,6.777071953E0
4.167840828E1,3.026920557E-1,7.063612461E0,6.797709942E0
4.172650724E1,2.673979402E-1,7.055237770E0,6.775875568E0
4.177460609E1,2.479562461E-1,7.073781967E0,6.811768055E0
4.182270505E1,2.276172489E-1,7.077670097E0,6.736692905E0
4.187080390E1,2.171486616E-1,7.089335442E0,6.895516872E0
4.191890286E1,1.214357466E-1,7.063313484E0,6.953243732E0
4.196700182E1,2.084746659E-1,7.092027187E0,6.714260101E0
4.201510078E1,3.990031779E-1,7.036693096E0,6.756732941E0
4.206319984E1,3.415754437E-1,7.022934437E0,6.759424686E0
4.211129880E1,2.488535494E-1,7.029514790E0,6.838088989E0
4.215939786E1,2.527419031E-1,7.038487911E0,6.786643028E0
4.220749682E1,2.533400953E-1,7.101299286E0,6.786045074E0
4.225559588E1,3.415754437E-1,7.094718933E0,6.882057190E0
4.230369494E1,2.877369225E-1,7.071090221E0,6.873084068E0
4.235179401E1,4.109672904E-1,7.078866482E0,6.648756981E0
4.239989307E1,2.715853751E-1,7.048657417E0,6.789036274E0
4.244799224E1,2.611167729E-1,7.086643219E0,6.707680225E0
4.249609130E1,2.353939265E-1,7.079464912E0,6.678368092E0
4.254419046E1,2.422732860E-1,7.137490749E0,6.725626469E0
4.259228953E1,2.593221664E-1,7.149754047E0,6.929016113E0
4.264038869E1,1.660020649E-1,7.202396393E0,6.696314335E0
4.268848786E1,9.930214286E-2,7.197311401E0,6.750451565E0
4.273658703E1,9.780662507E-2,7.155436993E0,6.670890331E0
4.278468619E1,2.048854381E-1,7.103991508E0,6.692126751E0
4.283278536E1,8.315058798E-2,7.151249409E0,6.736094952E0
4.288088463E1,6.669992954E-2,7.185646534E0,6.794120789E0
4.292898380E1,-9.092725813E-2,7.188936710E0,6.869195461E0
4.297708307E1,7.118647546E-2,7.210771084E0,6.448358059E0
4.302518224E1,1.546361595E-1,7.164709091E0,6.647859573E0
4.307328151E1,2.207378894E-1,7.167101860E0,6.738487720E0
4.312138078E1,2.126621157E-1,7.173084259E0,6.669394970E0
4.316948005E1,3.182454109E-1,7.207779884E0,6.495615959E0
4.321757932E1,1.806581169E-1,7.203293324E0,6.471687794E0
4.326567859E1,1.558325738E-1,7.221837997E0,6.650252342E0
4.331377796E1,1.351944804E-1,7.204789162E0,6.863213539E0
4.336187724E1,1.130608693E-1,7.208378315E0,6.795317173E0
4.340997661E1,2.138585299E-1,7.189833641E0,6.614359856E0
4.345807588E1,1.917249113E-1,7.171289444E0,6.642475605E0
4.350617526E1,2.542374134E-1,7.210771084E0,6.533003807E0
4.355427463E1,1.645065546E-1,7.220641613E0,6.645765781E0
4.360237401E1,1.800599098E-1,7.252645493E0,6.662216663E0
4.365047338E1,2.814557552E-1,7.307082176E0,6.493223190E0
4.369857276E1,4.034897089E-1,7.241279602E0,6.605985165E0
4.374667213E1,4.621138871E-1,7.255636692E0,6.797410965E0
4.379477151E1,3.783650696E-1,7.159026146E0,6.704988003E0
4.384287088E1,2.781656384E-1,7.214659214E0,6.524330139E0
4.389097036E1,1.953141540E-1,7.257730007E0,6.559923172E0
4.393906974E1,1.860419661E-1,7.258627415E0,6.626025200E0
4.398716921E1,2.958126962E-1,7.265506744E0,6.579664230E0
4.403526859E1,3.427718580E-1,7.183552742E0,6.789036274E0
4.408336807E1,2.614158690E-1,7.220641613E0,6.687640190E0
4.413146755E1,2.153540403E-1,7.280162811E0,6.461817741E0
4.417956703E1,2.303091735E-1,7.303493023E0,6.565606117E0
4.422766651E1,2.521436810E-1,7.262516022E0,6.631109715E0
4.427576598E1,4.061816335E-1,7.242475986E0,6.628417969E0
4.432386546E1,4.396811724E-1,7.202994347E0,6.551548481E0
4.437196494E1,2.907279432E-1,7.174280643E0,6.601199627E0
4.442006442E1,2.611167729E-1,7.232007504E0,6.674180508E0
4.446816390E1,1.094716340E-1,7.222435951E0,6.848258495E0
4.451626338E1,7.328019291E-2,7.279564857E0,6.806085110E0
4.456436296E1,7.238288224E-2,7.244569778E0,6.766304016E0
4.461246244E1,1.965105534E-1,7.246962547E0,6.494719028E0
4.466056192E1,2.030908167E-1,7.264310360E0,6.407081604E0
4.470866151E1,2.033899277E-1,7.268198967E0,6.552744865E0
4.475676098E1,3.020938635E-1,7.228118896E0,6.763313293E0
4.480486057E1,1.301097274E-1,7.218547821E0,7.013961315E0
4.485296005E1,-7.477570791E-3,7.308876991E0,6.521338940E0
4.490105963E1,8.075776696E-2,7.335197926E0,6.260521412E0
4.494915921E1,2.985046208E-1,7.236194611E0,6.487839699E0
4.499725869E1,2.356930375E-1,7.151249409E0,6.857829571E0
4.504535828E1,1.477568001E-1,7.196413994E0,6.867999077E0
4.509345786E1,1.256231815E-1,7.304689407E0,6.549155712E0
4.514155734E1,2.946162820E-1,7.334599495E0,6.472884178E0
4.518965692E1,2.781656384E-1,7.225726128E0,6.619145870E0
4.523775651E1,2.970091105E-1,7.174280643E0,6.694220543E0
4.528585609E1,3.182454109E-1,7.256833076E0,6.480959892E0
4.533395567E1,1.417747438E-1,7.246065140E0,6.712166786E0
4.538205526E1,1.944168471E-2,7.255636692E0,6.810571671E0
4.543015484E1,4.336991161E-2,7.301997185E0,6.499803543E0
4.547825432E1,2.039881349E-1,7.301399231E0,6.476174355E0
4.552635390E1,5.114658549E-2,7.253243446E0,6.873981476E0
4.557445348E1,1.734796353E-2,7.208677292E0,6.982256413E0
4.562255307E1,8.973085135E-2,7.231708050E0,6.652645111E0
4.567065265E1,9.182456881E-2,7.303792000E0,6.257829189E0
4.571875224E1,1.752742529E-1,7.297510624E0,6.330810547E0
4.576685182E1,1.615155302E-2,7.219744205E0,6.769893646E0
4.581495151E1,1.929213256E-1,7.282256603E0,6.693622112E0
4.586305109E1,2.542374134E-1,7.309175968E0,6.572485447E0
4.591115067E1,3.427718580E-1,7.294519901E0,6.521039963E0
4.595925026E1,2.703889608E-1,7.210172653E0,6.707680225E0
4.600734984E1,2.135594189E-1,7.140182972E0,6.854240417E0
4.605544942E1,7.716853172E-2,7.203592777E0,6.961917400E0
4.610354901E1,-3.230310604E-2,7.302296638E0,6.658627033E0
4.615164859E1,8.374879509E-2,7.296912670E0,6.467201233E0
4.619974817E1,1.857428551E-1,7.233502865E0,6.546164513E0
4.624784786E1,2.898306549E-1,7.186543941E0,6.582654953E0
4.629594744E1,1.660020649E-1,7.187440872E0,6.870391846E0
4.634404703E1,1.363908947E-1,7.305885792E0,6.562016964E0
4.639214661E1,1.600200087E-1,7.344769001E0,6.524629116E0
4.644024619E1,5.563312769E-2,7.233801842E0,6.775875568E0
4.648834578E1,7.866404206E-2,7.223333359E0,6.696314335E0
4.653644546E1,1.803590059E-1,7.264609337E0,6.580860615E0
4.658454505E1,1.525424421E-1,7.291229725E0,6.500700951E0
4.663264463E1,4.127619043E-2,7.228717327E0,6.794120789E0
4.668074421E1,6.520441920E-2,7.293024540E0,6.643671989E0
4.672884380E1,9.212367237E-2,7.284649372E0,6.512365818E0
4.677694349E1,-3.320041299E-2,7.248457909E0,6.506383896E0
4.682504307E1,-2.931207791E-2,7.235297680E0,6.687041759E0
4.687314265E1,-2.560320199E-1,7.238587379E0,6.811468601E0
4.692124224E1,-3.649054468E-2,7.332805157E0,6.524928093E0
4.696934192E1,-6.669992954E-2,7.255337238E0,6.750451565E0
4.701744151E1,-1.034895778E-1,7.215556622E0,6.879664421E0
4.706554109E1,3.738785535E-2,7.204789162E0,6.569195271E0
4.711364067E1,2.533400953E-1,7.239185810E0,6.399005890E0
4.716174036E1,2.201396823E-1,7.233203888E0,6.540481567E0
4.720983994E1,1.375873089E-1,7.212565422E0,6.711269379E0
4.725793953E1,6.640082598E-2,7.289135933E0,6.753442764E0
4.730603911E1,-2.691925503E-3,7.289734364E0,6.718746662E0
4.735413880E1,9.720841795E-2,7.268796921E0,6.671787739E0
4.740223838E1,1.319043487E-1,7.255038261E0,6.573681831E0
4.745033796E1,1.357926875E-1,7.182655334E0,6.658627033E0
4.749843765E1,1.552343667E-1,7.233801842E0,6.643671989E0
4.754653724E1,-5.653043464E-2,7.202396393E0,6.916453838E0
4.759463682E1,-7.657032460E-2,7.287939548E0,6.616154671E0
4.764273640E1,-3.320041299E-2,7.293024540E0,6.449853420E0
4.769083609E1,9.152546525E-2,7.216753006E0,6.685546398E0
4.773893567E1,1.001994461E-1,7.166503906E0,6.740880489E0
4.778703526E1,1.549352705E-1,7.178767204E0,6.679265499E0
4.783513494E1,1.010967568E-1,7.202994347E0,6.683153629E0
4.788323453E1,1.016949639E-1,7.290930748E0,6.528218269E0
4.793133411E1,6.460621208E-2,7.218547821E0,6.722336292E0
4.797943380E1,1.561316848E-1,7.141977310E0,6.838686943E0
4.802753338E1,9.152546525E-2,7.154240608E0,6.882356167E0
4.807563296E1,8.614161611E-2,7.211369038E0,6.939784050E0
4.812373265E1,6.999006122E-2,7.188338280E0,6.715157509E0
4.817183224E1,2.524427772E-1,7.186543941E0,6.552445889E0
4.821993182E1,2.030908167E-1,7.162316322E0,6.649055958E0
4.826803151E1,1.408774406E-1,7.187740326E0,6.693323135E0
4.831613109E1,9.332008660E-2,7.246962547E0,6.704091072E0
4.836423067E1,1.704886109E-1,7.241578579E0,6.727121830E0
4.841233036E1,1.274178028E-1,7.229315281E0,6.759724140E0
4.846042994E1,1.657029688E-1,7.215855598E0,6.712465763E0
4.850852953E1,8.584251255E-2,7.221538544E0,6.706782818E0
4.855662921E1,1.253240854E-1,7.212266445E0,6.454638958E0
4.860472880E1,1.573280841E-1,7.195516586E0,6.457331181E0
4.865282838E1,4.875376076E-2,7.191030025E0,6.862017155E0
4.870092807E1,6.580262445E-3,7.250850677E0,6.864409924E0
4.874902765E1,1.019940674E-1,7.308278561E0,6.670890331E0
4.879712724E1,1.238285750E-1,7.314858913E0,6.454938412E0
4.884522692E1,-7.238288224E-2,7.195217609E0,6.664908409E0
4.889332651E1,6.640082598E-2,7.144968510E0,6.798008919E0
4.894142609E1,4.725824669E-2,7.256833076E0,6.537789822E0
4.898952578E1,-1.289133132E-1,7.303194046E0,6.524330139E0
4.903762536E1,-8.255238086E-2,7.250850677E0,6.759125710E0
4.908572494E1,7.866404206E-2,7.284948349E0,6.621538639E0
4.913382463E1,2.769692242E-1,7.193423271E0,6.591030121E0
4.918192421E1,2.003988922E-1,7.156633377E0,6.830910206E0
4.923002390E1,1.408774406E-1,7.211070061E0,6.700501442E0
4.927812348E1,8.075776696E-2,7.186244488E0,6.822236538E0
4.932622307E1,8.195417374E-2,7.185646534E0,6.729813576E0
4.937432276E1,4.546362907E-2,7.192226887E0,6.678368092E0
4.942242234E1,3.768695518E-2,7.244868755E0,6.599105835E0
4.947052192E1,5.144568533E-2,7.248457909E0,6.624828815E0
4.951862161E1,-1.148554832E-1,7.210472107E0,6.923333168E0
4.956672119E1,3.260220960E-2,7.249654293E0,6.708577156E0
4.961482088E1,1.878365725E-1,7.255337238E0,6.535097599E0
4.966292046E1,2.811566554E-2,7.186842918E0,6.754639149E0
4.971102015E1,3.888336709E-3,7.241279602E0,6.592226505E0
4.975911974E1,-3.888336709E-3,7.268796921E0,6.486643314E0
4.980721932E1,-8.195417374E-2,7.264011383E0,6.610471725E0
4.985531901E1,3.170489892E-2,7.254439831E0,6.730412006E0
4.990341859E1,1.962114573E-1,7.188637257E0,6.905985355E0
4.995151828E1,1.630110443E-1,7.203293324E0,6.728916168E0
4.999961786E1,1.773679852E-1,7.270890713E0,6.497111797E0
5.004771744E1,1.543370634E-1,7.299305439E0,6.424728870E0
5.009581713E1,2.237289101E-1,7.220641613E0,6.712465763E0
5.014391671E1,1.136590764E-1,7.152146816E0,7.059424877E0
5.019201640E1,9.242277592E-2,7.279564857E0,6.585347176E0
5.024011598E1,6.999006122E-2,7.319943428E0,6.508178711E0
5.028821567E1,9.391828626E-2,7.306783199E0,6.526722908E0
5.033631526E1,2.724826932E-1,7.247859955E0,6.560820580E0
5.038441494E1,1.645065546E-1,7.188637257E0,6.770790577E0
5.043251453E1,2.003988996E-2,7.291827679E0,6.626623154E0
5.048061411E1,2.027917206E-1,7.310372353E0,6.493522644E0
5.052871380E1,8.075776696E-2,7.243073940E0,6.766005039E0
5.057681338E1,-2.153540403E-2,7.295716286E0,6.691827774E0
5.062491307E1,4.725824669E-2,7.253841877E0,6.658627033E0
5.067301265E1,3.296113312E-1,7.265207767E0,6.481558323E0
5.072111234E1,1.770688742E-1,7.204190731E0,6.725028038E0
5.076921192E1,1.052841991E-1,7.192824841E0,6.818647385E0
5.081731161E1,9.511470050E-2,7.292725086E0,6.553941250E0
5.086541130E1,2.093719784E-3,7.312166691E0,6.460022926E0
5.091351088E1,8.195417374E-2,7.294818878E0,6.504290104E0
5.096161057E1,2.392822690E-2,7.199106216E0,6.798906326E0
5.100971015E1,1.040877849E-1,7.247859955E0,6.713961124E0
5.105780984E1,2.602194622E-2,7.266105175E0,6.615556240E0
5.110590942E1,-5.982056609E-4,7.305287361E0,6.670591354E0
5.115400911E1,3.798605874E-2,7.299006462E0,6.618248463E0
5.120210869E1,5.802594870E-2,7.269095898E0,6.609574318E0
5.125020838E1,1.417747438E-1,7.226025105E0,6.674180508E0
5.129830807E1,9.661021084E-2,7.263412952E0,6.563512325E0
5.134640765E1,1.049850956E-1,7.314260483E0,6.535995007E0
5.139450734E1,1.076770201E-2,7.300202847E0,6.599404812E0
5.144260692E1,1.154536903E-1,7.345367432E0,6.485446453E0
5.149070661E1,8.404789865E-2,7.281957626E0,6.540780544E0
5.153880630E1,8.285148442E-2,7.228118896E0,6.748058796E0
5.158690588E1,8.315058798E-2,7.280461788E0,6.713961124E0
5.163500557E1,4.695914313E-2,7.338188648E0,6.485147476E0
5.168310526E1,1.076770201E-2,7.346862793E0,6.514758587E0
5.173120484E1,2.991028363E-3,7.296613693E0,6.621837616E0
5.177930453E1,7.178467698E-3,7.226922512E0,6.677769661E0
5.182740421E1,7.597211748E-2,7.249654293E0,6.622735023E0
5.187550380E1,1.016949583E-2,7.241279602E0,6.667600155E0
5.192360348E1,4.845465720E-2,7.308278561E0,6.591329098E0
5.197170317E1,8.973085321E-3,7.319046497E0,6.628716946E0
5.201980276E1,4.247260094E-2,7.317550659E0,6.660122871E0
5.206790244E1,7.746763527E-2,7.263113976E0,6.611967087E0
5.211600213E1,1.396810263E-1,7.223333359E0,6.643074036E0
5.216410182E1,6.879365444E-2,7.197909832E0,6.664309978E0
5.221220140E1,-5.383851007E-3,7.261319637E0,6.651149750E0
5.226030109E1,-1.615155302E-2,7.292725086E0,6.569494724E0
5.230840078E1,3.649054468E-2,7.279564857E0,6.574878216E0
5.235650046E1,1.483550072E-1,7.208677292E0,6.690631390E0
5.240460005E1,1.142572835E-1,7.208079338E0,6.696613312E0
5.245269974E1,4.187439755E-2,7.265506744E0,6.628417969E0
5.250079942E1,9.720841795E-2,7.289434910E0,6.508477688E0
5.254889911E1,-1.615155302E-2,7.271489143E0,6.750751019E0
5.259699869E1,-1.345962752E-2,7.268796921E0,6.780362129E0
5.264509838E1,-2.632104978E-2,7.251449108E0,6.726523399E0
5.269319807E1,7.058826834E-2,7.214360237E0,6.700501442E0
5.274129776E1,1.241276711E-1,7.226922512E0,6.653542519E0
5.278939734E1,5.742774159E-2,7.240083218E0,6.622735023E0
5.283749703E1,9.990034252E-2,7.264609337E0,6.629913330E0
5.288559671E1,1.055833027E-1,7.211070061E0,6.686742783E0
5.293369640E1,8.793623000E-2,7.220940590E0,6.763911247E0
5.298179609E1,9.272187948E-2,7.230811119E0,6.680162430E0
5.302989567E1,3.140579537E-2,7.266404152E0,6.622735023E0
5.307799536E1,1.256231871E-2,7.294220924E0,6.468697071E0
5.312609505E1,1.645065658E-2,7.250850677E0,6.671189308E0
5.317419474E1,8.225327730E-2,7.236793041E0,6.609574318E0
5.322229442E1,7.866404206E-2,7.269993305E0,6.589534283E0
5.327039401E1,6.610172242E-2,7.231110096E0,6.628716946E0
5.331849369E1,7.417750359E-2,7.258328438E0,6.570391655E0
5.336659338E1,4.576273263E-2,7.245467186E0,6.679265499E0
5.341469307E1,-3.409772366E-2,7.279863834E0,6.667301178E0
5.346279276E1,3.290131316E-2,7.277172089E0,6.599703789E0
5.351089244E1,6.041877344E-2,7.273283482E0,6.573681831E0
5.355899203E1,6.759724021E-2,7.284350395E0,6.713662148E0
5.360709171E1,3.559323773E-2,7.221837997E0,6.723233223E0
5.365519140E1,4.336991161E-2,7.256234646E0,6.699604511E0
5.370329109E1,-1.854437590E-2,7.264908791E0,6.520740986E0
5.375139078E1,-2.273181453E-2,7.226324558E0,6.654140472E0
5.379949046E1,-3.888336709E-3,7.192824841E0,6.747161865E0
5.384759015E1,4.187439755E-2,7.243672371E0,6.730710983E0
5.389568984E1,-2.871387079E-2,7.250850677E0,6.655636311E0
5.394378953E1,-9.272187948E-3,7.282855034E0,6.573382854E0
5.399188921E1,-1.375873014E-2,7.212565422E0,6.698108673E0
5.403998890E1,5.922235921E-2,7.210172653E0,6.665506363E0
5.408808859E1,1.408774406E-1,7.226922512E0,6.714260101E0
5.413618828E1,1.235294715E-1,7.230511665E0,6.723831654E0
5.418428796E1,2.362912335E-2,7.222435951E0,6.799504757E0
5.423238765E1,-2.033899166E-2,7.246962547E0,6.651149750E0
5.428048734E1,-2.303091809E-2,7.249953270E0,6.652645111E0
5.432858703E1,4.127619043E-2,7.228118896E0,6.570990086E0
5.437668671E1,5.084748194E-2,7.200601578E0,6.598806858E0
5.442478640E1,6.011966988E-2,7.220940590E0,6.669394970E0
5.447288609E1,4.247260094E-2,7.222435951E0,6.646364212E0
5.452098578E1,2.691925503E-2,7.232306480E0,6.716054916E0
5.456908546E1,8.015955985E-2,7.252047062E0,6.647859573E0
5.461718515E1,-1.465603895E-2,7.249953270E0,6.755536556E0
5.466528484E1,3.469592705E-2,7.251449108E0,6.671488762E0
5.471338453E1,-4.127619043E-2,7.179365158E0,6.747161865E0
5.476148421E1,5.982056609E-4,7.242774963E0,6.503392696E0
5.480958401E1,-3.858426586E-2,7.204190731E0,6.653841496E0
5.485768369E1,-1.704886183E-2,7.193722248E0,6.647859573E0
5.490578338E1,8.434699476E-2,7.183552742E0,6.768397808E0
5.495388307E1,8.225327730E-2,7.191329479E0,6.740880489E0
5.500198286E1,8.315058798E-2,7.230212688E0,6.618846416E0
5.505008255E1,-4.097708687E-2,7.200900555E0,6.718447685E0
5.509818224E1,-1.052841991E-1,7.211668491E0,6.693921566E0
5.514628192E1,4.935196787E-2,7.219744205E0,6.605087757E0
5.519438171E1,1.387837082E-1,7.213163853E0,6.672386169E0
5.524248140E1,3.020938672E-2,7.215556622E0,6.826124668E0
5.529058109E1,-4.127619043E-2,7.258328438E0,6.830013275E0
5.533868088E1,-1.139581800E-1,7.268796921E0,6.785746098E0
5.538678057E1,-2.021935135E-1,7.333104134E0,6.576074600E0
5.543488036E1,-1.692921966E-1,7.271189690E0,6.768397808E0
5.548298005E1,-7.746763527E-2,7.241279602E0,6.713961124E0
5.553107984E1,7.776673418E-3,7.200302601E0,6.682854652E0
5.557917953E1,1.133599728E-1,7.207779884E0,6.287739754E0
5.562727932E1,2.368894368E-1,7.245167732E0,6.131906986E0
5.567537901E1,2.291127741E-1,7.271788120E0,6.615257263E0
5.572347880E1,1.585244946E-2,7.356733322E0,6.862914562E0
5.577157849E1,3.828516230E-2,7.401897907E0,6.734001160E0
5.581967828E1,-9.511470050E-2,7.379465103E0,6.768996239E0
5.586777796E1,3.918246925E-2,7.346264839E0,6.481857300E0
5.591587776E1,5.892325938E-2,7.191030025E0,6.773183823E0
5.596397755E1,5.473581702E-2,7.173981190E0,6.634100914E0
5.601207724E1,5.204389244E-2,7.260422230E0,6.495018005E0
5.606017703E1,-6.430710852E-2,7.298707485E0,6.512664795E0
5.610827682E1,2.303091809E-2,7.365706444E0,6.437291145E0
5.615637651E1,3.080759197E-2,7.293024540E0,6.621239185E0
5.620447630E1,1.465603858E-1,7.235297680E0,6.771687984E0
5.625257609E1,1.187438220E-1,7.249953270E0,6.591628075E0
5.630067588E1,5.144568533E-2,7.272386074E0,6.501897335E0
5.634877557E1,5.383851007E-3,7.304689407E0,6.487540245E0
5.639687536E1,8.823533356E-2,7.325327396E0,6.567400932E0
5.644497515E1,1.052841991E-1,7.316653252E0,6.587141514E0
5.649307494E1,9.272187948E-2,7.305885792E0,6.595516682E0
5.654117474E1,9.122636169E-2,7.320242882E0,6.675077915E0
5.658927453E1,1.319043487E-1,7.328318596E0,6.620940208E0
5.663737432E1,3.110669367E-2,7.339983463E0,6.570391655E0
5.668547411E1,5.114658549E-2,7.350152969E0,6.427121639E0
5.673357390E1,2.156531364E-1,7.313064098E0,6.469295025E0
5.678167359E1,1.468594968E-1,7.304689407E0,6.539584160E0
5.682977338E1,6.819544733E-2,7.321738243E0,6.564409733E0
5.687787317E1,-2.662015148E-2,7.361219883E0,6.615556240E0
5.692597296E1,-8.763712645E-2,7.370491982E0,6.509375095E0
5.697407276E1,-4.307080805E-2,7.358827114E0,6.390930176E0
5.702217265E1,4.606183618E-2,7.243373394E0,6.754340172E0
5.707027244E1,1.202393398E-1,7.225726128E0,6.719046116E0
5.711837224E1,6.759724021E-2,7.217650414E0,6.599703789E0
5.716647203E1,2.075773627E-1,7.375277519E0,6.400202274E0
5.721457182E1,1.366899908E-1,7.325028419E0,6.780661106E0
5.726267161E1,5.473581702E-2,7.344171047E0,6.731608391E0
5.731077140E1,3.888336942E-2,7.386942387E0,6.509375095E0
5.735887119E1,9.631111473E-2,7.343273640E0,6.572186470E0
5.740697098E1,5.084747914E-3,7.306483746E0,6.620042801E0
5.745507088E1,3.230310604E-2,7.248158932E0,6.644270420E0
5.750317067E1,4.606183618E-2,7.219445229E0,6.495316982E0
5.755127046E1,3.535395563E-1,7.357929707E0,5.998208046E0
5.759937026E1,1.968096644E-1,7.305885792E0,6.447460651E0
5.764747015E1,1.627119333E-1,7.361518860E0,6.629614353E0
5.769556994E1,3.738785535E-2,7.302296638E0,6.956533432E0
5.774366974E1,2.455634177E-1,7.301997185E0,6.777969360E0
5.779176953E1,3.194418252E-1,7.278368473E0,6.490830421E0
5.783986942E1,2.500499785E-1,7.273881912E0,6.600003242E0
5.788796921E1,2.611167729E-1,7.295117855E0,6.468996048E0
5.793606911E1,9.990034252E-2,7.268198967E0,6.822236538E0
5.798416890E1,9.451649338E-2,7.326224804E0,6.517749786E0
5.803226869E1,1.426720470E-1,7.350750923E0,6.548557281E0
5.808036859E1,1.175474152E-1,7.260422230E0,6.667002201E0
5.812846838E1,2.219343036E-1,7.277172089E0,6.642176628E0
5.817656828E1,1.313061416E-1,7.260721207E0,6.644569397E0
5.822466807E1,1.034895778E-1,7.269993305E0,6.620342255E0
5.827276786E1,-5.623133108E-2,7.262814999E0,6.724130630E0
5.832086776E1,-8.973084623E-4,7.299903870E0,6.718447685E0
5.836896755E1,1.244267747E-1,7.374380112E0,6.397510529E0
5.841706744E1,8.015955985E-2,7.297810078E0,6.417849541E0
5.846516724E1,2.003988922E-1,7.257730007E0,6.567101955E0
5.851326713E1,1.920240223E-1,7.209574699E0,6.566204548E0
5.856136692E1,2.042872310E-1,7.250850677E0,6.667002201E0
5.860946682E1,6.640082598E-2,7.306783199E0,6.750751019E0
5.865756661E1,-7.866404206E-2,7.353742123E0,6.710371971E0
5.870566651E1,-1.193420291E-1,7.335197926E0,6.653841496E0
5.875376640E1,1.375873089E-1,7.302296638E0,6.595217228E0
5.880186619E1,2.090728730E-1,7.238886833E0,6.719046116E0
5.884996609E1,1.561316848E-1,7.284350395E0,6.495915413E0
5.889806588E1,1.465603858E-1,7.326224804E0,6.505486488E0
5.894616578E1,7.986045629E-2,7.321139812E0,6.634698868E0
5.899426567E1,-2.841476910E-2,7.297510624E0,6.693622112E0
5.904236546E1,3.619144112E-2,7.332805157E0,6.600003242E0
5.909046536E1,-2.273181453E-2,7.258328438E0,6.689733982E0
5.913856515E1,8.075776696E-2,7.319046497E0,6.430411816E0
5.918666505E1,2.123630047E-1,7.305885792E0,6.461219311E0
5.923476494E1,1.555334777E-1,7.351648331E0,6.486942291E0
5.928286474E1,4.247260094E-2,7.350152969E0,6.444469452E0
5.933096463E1,1.668993831E-1,7.345367432E0,6.458527565E0
5.937906442E1,-1.555334684E-2,7.269993305E0,6.778866768E0
5.942716432E1,-5.054837838E-2,7.344769001E0,6.449554443E0
5.947526421E1,-7.597211748E-2,7.325327396E0,6.490232468E0
5.952336411E1,3.409772366E-2,7.332206726E0,6.496214390E0
5.957146390E1,2.961117961E-2,7.311568737E0,6.593123913E0
5.961956380E1,2.051845491E-1,7.310073376E0,6.611967087E0
5.966766359E1,1.277169138E-1,7.284051418E0,6.711867332E0
5.971576349E1,1.097707376E-1,7.335496902E0,6.634100914E0
5.976386338E1,3.918246925E-2,7.327421188E0,6.605386734E0
5.981196328E1,3.649054468E-2,7.351947784E0,6.510272026E0
5.986006307E1,9.690931439E-2,7.268198967E0,6.483652115E0
5.990816296E1,1.004985496E-1,7.271189690E0,6.655037880E0
5.995626286E1,1.016949639E-1,7.295417309E0,6.567400932E0
6.000436270E1,-1.435693540E-2,7.364210606E0,6.515954971E0
6.005246255E1,-2.063809521E-2,7.340581894E0,6.577570438E0
6.010056239E1,4.486542568E-2,7.303194046E0,6.666104794E0
6.014866229E1,1.031904742E-1,7.267600536E0,6.670292377E0
6.019676218E1,-4.785645287E-3,7.289734364E0,6.668796539E0
6.024486198E1,4.247260094E-2,7.212565422E0,6.738786697E0
6.029296187E1,9.002995491E-2,7.266703129E0,6.566204548E0
6.034106177E1,8.195417374E-2,7.268796921E0,6.584150791E0
6.038916161E1,9.032905847E-2,7.249056339E0,6.790232658E0
6.043726145E1,1.378864050E-1,7.222435951E0,6.744768620E0
6.048536135E1,1.920240223E-1,7.259225845E0,6.627221584E0
6.053346125E1,1.863410622E-1,7.237092018E0,6.592226505E0
6.058156109E1,1.866401732E-1,7.231708050E0,6.616154671E0
6.062966093E1,4.127619043E-2,7.187440872E0,6.742375851E0
6.067776083E1,-7.058826834E-2,7.267600536E0,6.676573277E0
6.072586073E1,-2.542374097E-2,7.294519901E0,6.554539204E0
6.077396052E1,2.063809521E-2,7.290033340E0,6.591329098E0
6.082206041E1,1.405783296E-1,7.219744205E0,6.744170666E0
6.087016031E1,1.668993831E-1,7.208677292E0,6.678966045E0
6.091826015E1,8.404789865E-2,7.197012424E0,6.715456963E0
6.096636000E1,8.913264424E-2,7.267301559E0,6.577869415E0
6.101445989E1,7.357929647E-2,7.243672371E0,6.668497562E0
6.106255979E1,1.495514214E-1,7.261319637E0,6.657430649E0
6.111065968E1,1.139581800E-1,7.211369038E0,6.707979202E0
6.115875953E1,1.286142133E-2,7.244270325E0,6.765107632E0
6.120685937E1,-6.610172242E-2,7.256234646E0,6.658627033E0
6.125495927E1,-6.101697683E-2,7.255935669E0,6.641578197E0
6.130305916E1,6.370890141E-2,7.246962547E0,6.622435570E0
6.135115901E1,1.139581800E-1,7.224529743E0,6.813861370E0
6.139925885E1,1.453639716E-1,7.240083218E0,6.725626469E0
6.144735874E1,7.028916478E-2,7.296015263E0,6.664011002E0
6.149545864E1,1.734796353E-2,7.265506744E0,6.559325218E0
6.154355854E1,-7.178467698E-3,7.282555580E0,6.579664230E0
6.159165838E1,-1.256231871E-2,7.287341595E0,6.522834301E0
6.163975828E1,-5.383851007E-3,7.279564857E0,6.617351055E0
6.168785812E1,8.105687052E-2,7.301100254E0,6.490830421E0
6.173595802E1,4.217349738E-2,7.258029461E0,6.687939167E0
6.178405791E1,4.486542568E-2,7.273582458E0,6.636792660E0
6.183215781E1,5.802594870E-2,7.286743164E0,6.544669151E0
6.188025770E1,1.914258115E-2,7.317251682E0,6.480361938E0
6.192835755E1,4.486542661E-3,7.266703129E0,6.628417969E0
6.197645744E1,-1.794616925E-3,7.287939548E0,6.676573277E0
6.202455729E1,-3.948157281E-2,7.254140854E0,6.667899609E0
6.207265718E1,2.931207791E-2,7.287042141E0,6.572485447E0
6.212075708E1,1.076770201E-2,7.315456867E0,6.466004848E0
6.216885698E1,4.546362907E-2,7.310970306E0,6.610471725E0
6.221695687E1,1.914258115E-2,7.294818878E0,6.736393929E0
6.226505677E1,2.572284266E-2,7.321738243E0,6.637690067E0
6.231315666E1,1.555334684E-2,7.315756321E0,6.591628075E0
6.236125656E1,1.286142170E-1,7.251150131E0,6.574579239E0
6.240935645E1,1.223330572E-1,7.212565422E0,6.694818497E0
6.245745635E1,5.503492057E-2,7.298408031E0,6.483353138E0
6.250555624E1,-8.135596663E-2,7.328617573E0,6.624828815E0
6.255365609E1,-9.002995491E-2,7.340282440E0,6.567699909E0
6.260175599E1,-4.636093974E-2,7.305885792E0,6.654439926E0
6.264985588E1,1.061815023E-1,7.221837997E0,6.685247421E0
6.269795578E1,1.749751568E-1,7.212864876E0,6.668796539E0
6.274605567E1,-3.559323773E-2,7.255636692E0,6.622435570E0
6.279415557E1,-1.794617064E-2,7.347461224E0,6.515058041E0
6.284225546E1,-4.366901144E-2,7.338488102E0,6.706782818E0
6.289035536E1,-3.589234129E-2,7.323832035E0,6.708577156E0
6.293845526E1,-5.862415582E-2,7.330112934E0,6.572485447E0
6.298655515E1,-4.067798331E-2,7.301399231E0,6.487540245E0
6.303465510E1,1.037886813E-1,7.336992264E0,6.299105644E0
6.308275500E1,1.328016520E-1,7.315756321E0,6.584449768E0
6.313085489E1,-3.798605874E-2,7.319046497E0,6.785746098E0
6.317895479E1,-1.342971772E-1,7.406384468E0,6.638288021E0
6.322705468E1,-1.441675574E-1,7.448557854E0,6.403492451E0
6.327515458E1,2.991028363E-3,7.416852951E0,6.236293793E0
6.332325448E1,-1.175474152E-1,7.354340553E0,6.413362980E0
6.337135437E1,-1.648056656E-1,7.386045456E0,6.393921375E0
6.341945427E1,-1.226321608E-1,7.424629688E0,6.369095802E0
6.346755416E1,-4.067798331E-2,7.369295597E0,6.596713066E0
6.351565406E1,-2.162513435E-1,7.380960464E0,6.655037880E0
6.356375395E1,-3.212364316E-1,7.440182686E0,6.481558323E0
6.361185385E1,-2.733799815E-1,7.428816795E0,6.500700951E0
6.365995374E1,-2.024926096E-1,7.385746002E0,6.512664795E0
6.370805364E1,-6.281159073E-2,7.359724045E0,6.559624195E0
6.375615354E1,2.811566554E-2,7.354639530E0,6.410371780E0
6.380425349E1,1.241276711E-1,7.344470024E0,6.286543369E0
6.385235338E1,7.776673883E-2,7.321439266E0,6.391827583E0
6.390045333E1,-6.400800496E-2,7.406384468E0,6.547360897E0
6.394855323E1,-2.291127741E-1,7.352246761E0,6.726822853E0
6.399665312E1,-2.667997181E-1,7.445865631E0,6.445067883E0
6.404475302E1,-1.642074585E-1,7.456932545E0,6.366703033E0
6.409285291E1,-2.219343036E-1,7.376174927E0,6.605686188E0
6.414095281E1,-1.776670814E-1,7.383054256E0,6.536892414E0
6.418905270E1,-1.872383654E-1,7.305287361E0,6.702595234E0
6.423715260E1,-2.300100774E-1,7.338188648E0,6.631109715E0
6.428525250E1,-2.288136631E-1,7.390232563E0,6.407381058E0
6.433335239E1,-9.930214286E-2,7.411170006E0,6.398108482E0
6.438145229E1,-5.294119939E-2,7.349554539E0,6.669095993E0
6.442955224E1,-1.444666684E-1,7.305586815E0,6.702595234E0
6.447765218E1,2.333002165E-2,7.385447025E0,6.309275150E0
6.452575208E1,8.374879509E-2,7.342675209E0,6.397211552E0
6.457385198E1,-7.597211748E-2,7.287042141E0,6.655037880E0
6.462195187E1,-1.322034448E-1,7.337889671E0,6.502196312E0
6.467005177E1,-3.738785386E-1,7.344171047E0,6.801897526E0
6.471815166E1,-3.415754437E-1,7.454240799E0,6.444469452E0
6.476625161E1,-3.200400174E-1,7.461718082E0,6.394818306E0
6.481435156E1,-1.812563092E-1,7.377072334E0,6.366703033E0
6.486245145E1,-2.512463741E-2,7.342376232E0,6.232405663E0
6.491055135E1,7.238288224E-2,7.287341595E0,6.460022926E0
6.495865124E1,-2.796611488E-1,7.297211647E0,6.761219501E0
6.500675124E1,-4.755735099E-1,7.454240799E0,6.506682873E0
6.505485114E1,-6.008976102E-1,7.471588612E0,6.523432732E0
6.510295104E1,-2.772683203E-1,7.430910587E0,6.388238430E0
6.515105104E1,-4.097708687E-2,7.270591736E0,6.683752060E0
6.519915093E1,2.656033039E-1,7.252047062E0,6.450451851E0
6.524725088E1,1.636092514E-1,7.272685528E0,6.625127792E0
6.529535083E1,-2.042872310E-1,7.320242882E0,6.766005039E0
6.534345073E1,-2.946162820E-1,7.441080093E0,6.533602238E0
6.539155072E1,-2.219343036E-1,7.460222721E0,6.337091446E0
6.543965062E1,-2.970091105E-1,7.360621452E0,6.529714108E0
6.548775062E1,-3.050848842E-1,7.283154011E0,6.498009205E0
6.553585052E1,-1.202393398E-1,7.386643410E0,6.251847267E0
6.558395052E1,5.982056633E-2,7.411170006E0,6.242276192E0
6.563205052E1,-8.673981763E-3,7.352545738E0,6.679863453E0
6.568015041E1,-2.258226424E-1,7.325028419E0,6.932605267E0
6.572825041E1,-2.174477577E-1,7.415656567E0,6.637091637E0
6.577635036E1,-2.362912297E-1,7.427919865E0,6.421737671E0
6.582445031E1,-7.088737190E-2,7.368697166E0,6.408577442E0
6.587255031E1,-2.063809521E-2,7.248158932E0,6.647859573E0
6.592065031E1,3.170489892E-2,7.253542900E0,6.419943333E0
6.596875020E1,2.138585299E-1,7.416553974E0,6.084050655E0
6.601685020E1,-1.492523104E-1,7.359724045E0,6.597609997E0
6.606495020E1,-1.094716340E-1,7.455437183E0,6.691229343E0
6.611305020E1,-2.183450609E-1,7.426424026E0,6.728318214E0
6.616115015E1,-7.926224917E-2,7.358228683E0,6.674778938E0
6.620925010E1,-2.572284266E-2,7.315456867E0,6.312864304E0
6.625735010E1,3.290131316E-2,7.238288403E0,6.387938976E0
6.630545010E1,9.541380405E-2,7.325028419E0,6.174379826E0
6.635355010E1,-4.965107143E-2,7.313662529E0,6.726822853E0
6.640165010E1,-2.186441720E-1,7.377072334E0,6.725626469E0
6.644975010E1,1.196411322E-3,7.407580853E0,6.637989044E0
6.649785000E1,-1.498505175E-1,7.312166691E0,6.885347366E0
6.654595000E1,-1.779661775E-1,7.313064098E0,6.693323135E0
6.659405000E1,-1.537388563E-1,7.307082176E0,6.397809505E0
6.664215000E1,-6.281159073E-2,7.308278561E0,6.424429893E0
6.669025000E1,-1.354935765E-1,7.282256603E0,6.684648991E0
6.673835000E1,-1.860419661E-1,7.369594574E0,6.674778938E0
6.678645000E1,-2.380858511E-1,7.336394310E0,6.667002201E0
6.683455000E1,-1.031904742E-1,7.453642368E0,6.208178520E0
6.688264994E1,-7.298108935E-2,7.386344433E0,6.258427620E0
6.693074989E1,-1.944168471E-2,7.277172089E0,6.634698868E0
6.697884989E1,5.982056726E-3,7.286743164E0,6.713662148E0
6.702694989E1,-2.003988922E-1,7.347461224E0,6.687640190E0
6.707504989E1,-1.932204217E-1,7.501798153E0,6.194419384E0
6.712314989E1,-1.336989701E-1,7.466803074E0,6.346064568E0
6.717124989E1,-1.175474152E-1,7.313363075E0,6.653841496E0
6.721934984E1,-1.405783296E-1,7.291229725E0,6.638587475E0
6.726744979E1,-1.872383654E-1,7.320541859E0,6.442974091E0
6.731554979E1,-1.953141540E-1,7.406085014E0,6.337091446E0
6.736364979E1,-3.741776347E-1,7.373183727E0,6.522535324E0
6.741174979E1,-2.997010350E-1,7.407281399E0,6.659524441E0
6.745984968E1,-2.551347017E-1,7.384250641E0,6.554240227E0
6.750794968E1,-2.404786795E-1,7.373483181E0,6.510870457E0
6.755604968E1,-2.132603228E-1,7.303493023E0,6.605087757E0
6.760414968E1,-1.417747438E-1,7.293921471E0,6.458527565E0
6.765224958E1,-2.087737769E-1,7.313363075E0,6.628716946E0
6.770034958E1,-2.395813614E-1,7.347461224E0,6.558128834E0
6.774844958E1,-3.667000830E-1,7.404888630E0,6.586842537E0
6.779654953E1,-3.311068416E-1,7.382156849E0,6.580262184E0
6.784464948E1,-3.296113312E-1,7.347461224E0,6.624828815E0
6.789274948E1,-1.971087605E-1,7.314559937E0,6.560521603E0
6.794084937E1,-9.631111473E-2,7.293323517E0,6.402595043E0
6.798894937E1,-1.779661775E-1,7.304390430E0,6.464808464E0
6.803704937E1,-9.391828626E-2,7.355835915E0,6.531807423E0
6.808514927E1,-1.875374764E-1,7.362416267E0,6.720840454E0
6.813324927E1,-4.031906128E-1,7.395317554E0,6.649354935E0
6.818134916E1,-3.529413342E-1,7.402794838E0,6.515058041E0
6.822944916E1,-2.721835673E-1,7.313064098E0,6.510571480E0
6.827754906E1,-7.328019291E-2,7.328617573E0,6.353542328E0
6.832564906E1,-7.716853172E-2,7.323233604E0,6.479165554E0
6.837374895E1,-2.222333997E-1,7.322934628E0,6.712764740E0
6.842184895E1,-3.008974493E-1,7.377670288E0,6.747161865E0
6.846994885E1,-4.704887569E-1,7.435995579E0,6.535097599E0
6.851804880E1,-3.308077157E-1,7.409674644E0,6.371787548E0
6.856614874E1,-2.925225794E-1,7.351947784E0,6.414858341E0
6.861424864E1,-1.935195327E-1,7.296613693E0,6.447759628E0
6.866234864E1,-2.494517565E-1,7.264908791E0,6.742375851E0
6.871044854E1,-2.566302419E-1,7.379465103E0,6.522236347E0
6.875854843E1,-2.793620527E-1,7.458128929E0,6.511169434E0
6.880664838E1,-3.355933726E-1,7.373483181E0,6.529414654E0
6.885474833E1,-1.660020649E-1,7.345666409E0,6.565008163E0
6.890284822E1,-1.223330572E-1,7.346862793E0,6.421737671E0
6.895094812E1,-1.501496136E-1,7.331907749E0,6.527620316E0
6.899904802E1,-1.642074585E-1,7.312765121E0,6.687341213E0
6.904714796E1,-1.911267042E-1,7.339086056E0,6.601797581E0
6.909524791E1,-2.003988922E-1,7.333403111E0,6.659225464E0
6.914334781E1,-2.350948304E-1,7.400402069E0,6.484250069E0
6.919144770E1,-2.084746659E-1,7.322635651E0,6.596413612E0
6.923954760E1,-1.408774406E-1,7.324429989E0,6.564110756E0
6.928764750E1,-2.003988922E-1,7.329514980E0,6.498607159E0
6.933574739E1,-1.797607988E-1,7.360023499E0,6.468397617E0
6.938384729E1,-6.041877344E-2,7.344171047E0,6.488736629E0
6.943194718E1,-1.752742529E-1,7.256234646E0,6.787839413E0
6.948004708E1,-3.466601670E-1,7.328617573E0,6.630511761E0
6.952814698E1,-3.415754437E-1,7.390532017E0,6.381059647E0
6.957624682E1,-1.178465188E-1,7.371688366E0,6.536293983E0
6.962434666E1,-1.609173268E-1,7.267002583E0,6.737590313E0
6.967244656E1,-1.274178028E-1,7.264908791E0,6.736393929E0
6.972054645E1,-2.410768867E-1,7.345965385E0,6.414559364E0
6.976864635E1,-2.919243574E-1,7.401000500E0,6.451348782E0
6.981674619E1,-2.392822653E-1,7.327720165E0,6.643373013E0
6.986484604E1,-2.066800594E-1,7.281957626E0,6.762714863E0
6.991294593E1,-1.737787426E-1,7.284649372E0,6.629913330E0
6.996104578E1,-2.452643216E-1,7.303493023E0,6.480361938E0
7.000914562E1,-3.158525825E-1,7.299006462E0,6.582954407E0
7.005724552E1,-2.398804724E-1,7.337291718E0,6.450451851E0
7.010534536E1,-3.200400174E-1,7.315456867E0,6.721139908E0
7.015344520E1,-2.422732860E-1,7.297211647E0,6.737291336E0
7.020154505E1,-1.692921966E-1,7.288238525E0,6.589235306E0
7.024964489E1,-1.501496136E-1,7.325925827E0,6.511468410E0
7.029774474E1,-2.057827413E-1,7.281658173E0,6.658029079E0
7.034584458E1,-2.769692242E-1,7.332505703E0,6.600302219E0
7.039394437E1,-3.197409213E-1,7.341478825E0,6.566503525E0
7.044204421E1,-1.537388563E-1,7.305586815E0,6.602396011E0
7.049014406E1,-3.035893738E-1,7.231110096E0,6.879963398E0
7.053824942E1,-1.477568001E-1,7.331010342E0,6.388836384E0
7.058634369E1,-9.451649338E-2,7.365706444E0,6.202794552E0
7.063444354E1,-8.135596663E-2,7.347760201E0,6.538986206E0
7.068254333E1,-3.499503136E-1,7.200302601E0,7.040282249E0
7.073064312E1,-3.284149170E-1,7.230212688E0,6.859325409E0
7.077874291E1,-3.167499006E-1,7.327421188E0,6.445665836E0
7.082684276E1,-2.955136001E-1,7.371089935E0,6.410670757E0
7.087494255E1,-2.889333367E-1,7.322336197E0,6.488437653E0
7.092304234E1,-1.767697781E-1,7.308577538E0,6.658926487E0
7.097114213E1,-2.111666054E-1,7.243073940E0,6.756732941E0
7.101924192E1,-2.883351147E-1,7.272087097E0,6.643373013E0
7.106734171E1,-2.757728100E-1,7.300501823E0,6.523133755E0
7.111544151E1,-2.039881349E-1,7.300800800E0,6.406184196E0
7.116354130E1,-8.374879509E-2,7.259823799E0,6.659225464E0
7.121164109E1,-7.357929647E-2,7.187740326E0,6.870092869E0
7.125974083E1,-1.127617657E-1,7.305287361E0,6.627520561E0
7.130784062E1,-5.084748194E-2,7.276274681E0,6.681658268E0
7.135594041E1,-6.759724021E-2,7.247560501E0,6.582355976E0
7.140404015E1,-9.451649338E-2,7.217650414E0,6.734599113E0
7.145213994E1,-2.641077936E-1,7.225128174E0,6.882057190E0
7.150023968E1,-2.781656384E-1,7.259823799E0,6.712764740E0
7.154833942E1,-8.045866340E-2,7.307979584E0,6.419045925E0
7.159643921E1,-3.254238665E-1,7.204789162E0,6.865307331E0
7.164453895E1,-2.670988142E-1,7.245467186E0,6.789335251E0
7.169263869E1,-1.178465188E-1,7.215257645E0,6.633801460E0
7.174073843E1,-1.046859920E-1,7.192226887E0,6.647859573E0
7.178883817E1,-1.208375469E-1,7.232306480E0,6.626922131E0
7.183694255E1,-1.567298770E-1,7.233203888E0,6.740282059E0
7.188503765E1,-2.150549293E-1,7.220940590E0,6.829713821E0
7.193313739E1,-4.187439755E-2,7.319345474E0,6.457630157E0
7.198123713E1,7.477571070E-2,7.326822758E0,6.355935097E0
7.202933687E1,-9.272187948E-2,7.219744205E0,6.888338089E0
7.207743661E1,-2.093719840E-1,7.166204929E0,6.924230576E0
7.212553630E1,-2.294118702E-1,7.213462830E0,6.667002201E0
7.217363604E1,-2.255235314E-1,7.269694328E0,6.649953365E0
7.222173586E1,-2.691925466E-1,7.294220924E0,6.683752060E0
7.226983560E1,-1.396810263E-1,7.256833076E0,6.557231426E0
7.231793528E1,-4.965107143E-2,7.249654293E0,6.559025764E0
7.236603497E1,-1.160518974E-1,7.201797962E0,6.725626469E0
7.241413471E1,-2.653042078E-1,7.194619656E0,6.816852570E0
7.246223440E1,-2.647060156E-1,7.280761242E0,6.593123913E0
7.251033409E1,-1.507478207E-1,7.295417309E0,6.610770702E0
7.255843377E1,-2.303091735E-1,7.162615299E0,6.934998035E0
7.260653351E1,-2.470589429E-1,7.264011383E0,6.628716946E0
7.265463320E1,-1.719841212E-1,7.319345474E0,6.532704830E0
7.270273289E1,-2.452643216E-1,7.216454029E0,6.691229343E0
7.275083252E1,-1.226321608E-1,7.260422230E0,6.484549522E0
7.279893221E1,-2.757728100E-1,7.201498985E0,6.886543751E0
7.284703190E1,-2.288136631E-1,7.273582458E0,6.731009960E0
7.289513159E1,-1.944168359E-1,7.297510624E0,6.613163471E0
7.294323122E1,-1.588236094E-1,7.229614735E0,6.843472958E0
7.299133091E1,-2.602194548E-1,7.233203888E0,6.694519520E0
7.303943060E1,-2.009970993E-1,7.261020184E0,6.579963207E0
7.308753023E1,-1.785643846E-1,7.353742123E0,6.401997089E0
7.313562992E1,-1.836491376E-1,7.369295597E0,6.637989044E0
7.318372956E1,-9.541380405E-2,7.295417309E0,6.742675304E0
7.323182924E1,1.124626622E-1,7.296015263E0,6.666403770E0
7.327992888E1,-8.075776696E-2,7.345965385E0,6.571887493E0
7.332802851E1,-1.199402362E-1,7.327421188E0,6.645466805E0
7.337612820E1,-2.778665423E-1,7.304390430E0,6.633502483E0
7.342422778E1,-2.201396823E-1,7.377371311E0,6.365506649E0
7.347232747E1,-2.003988922E-1,7.319046497E0,6.476772785E0
7.352042711E1,-1.513460279E-1,7.382755280E0,6.352046967E0
7.356852674E1,-1.127617657E-1,7.348358154E0,6.527919292E0
7.361662638E1,-5.353940651E-2,7.303493023E0,6.668198586E0
7.366472601E1,-1.417747438E-1,7.308278561E0,6.696014881E0
7.371282565E1,-9.780662507E-2,7.465307713E0,6.222834587E0
7.376092528E1,-1.244267747E-1,7.401598454E0,6.546164513E0
7.380902487E1,-1.316052526E-1,7.387241840E0,6.663712025E0
7.385712450E1,-1.178465188E-1,7.352246761E0,6.533901215E0
7.390522414E1,-1.169492081E-1,7.291528702E0,6.645466805E0
7.395332372E1,-1.357926875E-1,7.346563816E0,6.434299946E0
7.400142336E1,-2.105683982E-1,7.358527660E0,6.541079998E0
7.404952299E1,-2.410768867E-1,7.399205685E0,6.514758587E0
7.409762258E1,-2.350948304E-1,7.433901787E0,6.516852379E0
7.414572216E1,-2.724826932E-1,7.354041100E0,6.624828815E0
7.419382180E1,-1.576271951E-1,7.357331276E0,6.490531445E0
7.424192138E1,-1.600200087E-1,7.363911629E0,6.515954971E0
7.429002101E1,-1.785643846E-1,7.347161770E0,6.608676910E0
7.433812060E1,-2.494517565E-1,7.327122211E0,6.635596275E0
7.438622018E1,-2.542374134E-1,7.360920429E0,6.426523209E0
7.443431976E1,-2.078764737E-1,7.376174927E0,6.483353138E0
7.448241935E1,-1.441675574E-1,7.412964344E0,6.428318024E0
7.453051893E1,-2.162513435E-1,7.346862793E0,6.756134510E0
7.457861851E1,-1.800599098E-1,7.389634609E0,6.565307140E0
7.462671810E1,-1.480558962E-1,7.400402069E0,6.463911057E0
7.467481768E1,-1.166501045E-1,7.351050377E0,6.546164513E0
7.472291726E1,-1.516451389E-1,7.336095333E0,6.521937370E0
7.477101685E1,-1.196411327E-1,7.369295597E0,6.439384937E0
7.481911643E1,-1.046859920E-1,7.395616531E0,6.381658077E0
7.486721601E1,-2.009970993E-1,7.405786037E0,6.465406895E0
7.491531560E1,-2.171486616E-1,7.387540817E0,6.577271461E0
7.496341513E1,-1.956132501E-1,7.412665367E0,6.549454689E0
7.501151471E1,-1.465603858E-1,7.360023499E0,6.538986206E0
7.505961424E1,-1.375873014E-2,7.342077255E0,6.503392696E0
7.510771383E1,-3.798605874E-2,7.301399231E0,6.718447685E0
7.515581341E1,-8.434699476E-2,7.401897907E0,6.457630157E0
7.520391294E1,-1.369891018E-1,7.386942387E0,6.480062962E0
7.525201247E1,-1.208375469E-1,7.441678524E0,6.392126560E0
7.530011206E1,-1.073779166E-1,7.313662529E0,6.687041759E0
7.534821164E1,5.084747914E-3,7.321439266E0,6.540780544E0
7.539631112E1,-6.669992954E-2,7.350152969E0,6.487540245E0
7.544441070E1,-7.836493850E-2,7.363014221E0,6.586244106E0
7.549251029E1,-1.923231184E-1,7.373183727E0,6.555436611E0
7.554060976E1,-1.076770201E-2,7.389335632E0,6.507879257E0
7.558870935E1,-1.085743308E-1,7.312166691E0,6.594619274E0
7.563680883E1,-3.050848842E-2,7.365406990E0,6.613163471E0
7.568490841E1,-4.366901144E-2,7.312765121E0,6.726224422E0
7.573300789E1,9.571290761E-2,7.310970306E0,6.649953365E0
7.578110747E1,-5.054837838E-2,7.287939548E0,6.680760860E0
7.582920695E1,-8.703892678E-2,7.370491982E0,6.416952133E0
7.587730654E1,-8.943174779E-2,7.352545738E0,6.439683914E0
7.592540601E1,9.900303930E-2,7.321439266E0,6.607181549E0
7.597350560E1,2.662015148E-2,7.289434910E0,6.720541477E0
7.602160508E1,-1.441675574E-1,7.377371311E0,6.658926487E0
7.606970456E1,-2.638086975E-1,7.445267677E0,6.428019047E0
7.611780414E1,-2.557329237E-1,7.439285755E0,6.333203316E0
7.616590362E1,-8.374879509E-2,7.394121170E0,6.487241268E0
7.621400310E1,-1.118644550E-1,7.291528702E0,6.669394970E0
7.626210268E1,-7.118647546E-2,7.312466145E0,6.617949009E0
7.631020216E1,-8.404789865E-2,7.418946743E0,6.304489613E0
7.635830164E1,-1.902294010E-1,7.415955544E0,6.422036648E0
7.640640112E1,-1.378864050E-1,7.395616531E0,6.485446453E0
7.645450070E1,-4.336991161E-2,7.284051418E0,6.646962166E0
7.650260018E1,3.649054468E-2,7.287640572E0,6.659524441E0
7.655069966E1,-3.768695518E-2,7.338188648E0,6.545865536E0
7.659879914E1,-1.788634956E-1,7.356733322E0,6.524629116E0
7.664689862E1,-2.174477577E-1,7.364510059E0,6.533003807E0
7.669499820E1,-1.932204217E-1,7.338488102E0,6.527320862E0
7.674309768E1,-1.399801224E-1,7.289734364E0,6.638587475E0
7.679119716E1,-1.037886813E-1,7.332805157E0,6.585347176E0
7.683929664E1,-1.094716340E-1,7.386045456E0,6.430112839E0
7.688739612E1,-1.477568001E-1,7.325327396E0,6.597311020E0
7.693549560E1,-4.845465720E-2,7.334599495E0,6.602396011E0
7.698359508E1,-8.255238086E-2,7.300800800E0,6.734001160E0
7.703169456E1,-5.324030295E-2,7.313662529E0,6.692126751E0
7.707979404E1,-9.391828626E-2,7.340282440E0,6.639484406E0
7.712789351E1,-7.268198580E-2,7.306483746E0,6.589235306E0
7.717599299E1,3.858426586E-2,7.228717327E0,6.704390049E0
7.722409247E1,-5.862415582E-2,7.198208809E0,6.677171707E0
7.727219195E1,-1.196411327E-1,7.237690449E0,6.617949009E0
7.732029143E1,-1.842473447E-1,7.352545738E0,6.426224232E0
7.736839091E1,-9.990034252E-2,7.312466145E0,6.784549713E0
7.741649039E1,-1.483550072E-1,7.266404152E0,6.871887684E0
7.746458987E1,-2.691925466E-1,7.371688366E0,6.550651073E0
7.751268935E1,-2.581257522E-1,7.425527096E0,6.328716755E0
7.756078877E1,-2.222333997E-1,7.363911629E0,6.414858341E0
7.760888820E1,-1.190429255E-1,7.313961506E0,6.452844620E0
7.765698768E1,-8.913264424E-2,7.272984505E0,6.621837616E0
7.770508716E1,-8.883354068E-2,7.333702087E0,6.595217228E0
7.775318664E1,-1.154536903E-1,7.392625332E0,6.482455730E0
7.780128612E1,-1.761715710E-1,7.360322475E0,6.640980244E0
7.784938560E1,-1.310070455E-1,7.357929707E0,6.521937370E0
7.789748508E1,-4.755735025E-2,7.346563816E0,6.498009205E0
7.794558450E1,-1.145563871E-1,7.325327396E0,6.611369133E0
7.799368393E1,-5.353940651E-2,7.318747044E0,6.643074036E0
7.804178341E1,-2.751746029E-2,7.316354275E0,6.625127792E0
7.808988289E1,-3.619144112E-2,7.325626373E0,6.504290104E0
7.813798237E1,5.982056609E-4,7.379465103E0,6.394220352E0
7.818608185E1,2.991028305E-4,7.314559937E0,6.637989044E0
7.823418133E1,4.995017126E-2,7.334300518E0,6.649055958E0
7.828228070E1,3.170489892E-2,7.303493023E0,6.671488762E0
7.833038018E1,-6.400800496E-2,7.371987343E0,6.517450809E0
7.837847966E1,-5.054837838E-2,7.303792000E0,6.559624195E0
7.842657914E1,4.725824669E-2,7.252645493E0,6.576074600E0
7.847467862E1,1.226321608E-2,7.252047062E0,6.639185429E0
7.852277810E1,-6.999006122E-2,7.332805157E0,6.560521603E0
7.857087747E1,-5.563312769E-2,7.377072334E0,6.536892414E0
7.861897695E1,-2.123630047E-2,7.313662529E0,6.795616150E0
7.866707643E1,-4.486542661E-3,7.256833076E0,6.770491600E0
7.871517591E1,4.007977992E-2,7.252346516E0,6.641279221E0
7.876327539E1,9.960123897E-2,7.313363075E0,6.369693756E0
7.881137482E1,-5.383851007E-2,7.309773922E0,6.560521603E0
7.885947424E1,-8.344969153E-2,7.313363075E0,6.677769661E0
7.890757372E1,-3.320041299E-2,7.345965385E0,6.675675869E0
7.895567320E1,2.213360928E-2,7.342974663E0,6.598208427E0
7.900377268E1,-1.256231871E-2,7.279863834E0,6.577869415E0
7.905187216E1,-3.140579537E-2,7.277770042E0,6.564409733E0
7.909997159E1,-1.013958603E-1,7.285546780E0,6.586842537E0
7.914807101E1,-7.357929647E-2,7.319943428E0,6.593422890E0
7.919617049E1,-9.511470050E-2,7.303194046E0,6.574878216E0
7.924426997E1,-8.554340899E-2,7.279265404E0,6.651448727E0
7.929236945E1,2.931207791E-2,7.296613693E0,6.537789822E0
7.934046893E1,-1.106680464E-2,7.238288403E0,6.712465763E0
7.938856841E1,5.084748194E-2,7.285546780E0,6.495615959E0
7.943666779E1,1.824527234E-2,7.289734364E0,6.590132713E0
7.948476726E1,-5.623133108E-2,7.282555580E0,6.717251301E0
7.953286674E1,-1.450648755E-1,7.319943428E0,6.612864494E0
7.958096622E1,-1.438684613E-1,7.254439831E0,6.678069115E0
7.962906570E1,4.007977992E-2,7.245167732E0,6.581159592E0
7.967716518E1,-1.612164229E-1,7.234699249E0,6.671488762E0
7.972526466E1,-1.438684613E-1,7.262814999E0,6.713662148E0
7.977336414E1,-1.600200087E-1,7.282855034E0,6.707979202E0
7.982146351E1,-1.064806059E-1,7.211967468E0,6.611967087E0
7.986956299E1,-8.973085321E-3,7.230511665E0,6.498009205E0
7.991766247E1,-4.456632212E-2,7.228717327E0,6.791728020E0
7.996576195E1,-2.434697002E-1,7.244270325E0,6.930511475E0
8.001386143E1,-2.374876440E-1,7.289135933E0,6.691528320E0
8.006196091E1,-1.516451389E-1,7.289135933E0,6.460022926E0
8.011006039E1,-1.645065546E-1,7.240083218E0,6.573083878E0
8.015815987E1,-6.191428751E-2,7.198208809E0,6.615855694E0
8.020625935E1,-9.900303930E-2,7.202396393E0,6.746563435E0
8.025435883E1,-1.441675574E-1,7.261917591E0,6.687341213E0
8.030245830E1,-2.243271172E-1,7.263712406E0,6.743572235E0
8.035055778E1,-2.437688112E-1,7.245467186E0,6.676573277E0
8.039865726E1,-3.140579537E-2,7.191329479E0,6.587739944E0
8.044675674E1,2.931207791E-2,7.168298244E0,6.585646152E0
8.049485633E1,-1.740778536E-1,7.219145775E0,6.706483841E0
8.054295580E1,-2.288136631E-1,7.289434910E0,6.614659309E0
8.059105529E1,-3.221337497E-1,7.246962547E0,6.895516872E0
8.063915476E1,-3.526422381E-1,7.242475986E0,6.819245338E0
8.068725424E1,-1.740778536E-1,7.272386074E0,6.576074600E0
8.073535372E1,-1.381855011E-1,7.200900555E0,6.692126751E0
8.078345331E1,-1.516451389E-1,7.194918633E0,6.689733982E0
8.083155278E1,-1.043868884E-1,7.201797962E0,6.683752060E0
8.087965226E1,-2.147558331E-1,7.316952705E0,6.536293983E0
8.092775174E1,-1.854437590E-1,7.339385033E0,6.584449768E0
8.097585133E1,-1.274178028E-1,7.240980625E0,6.677769661E0
8.102395080E1,-5.383851007E-2,7.186842918E0,6.636194706E0
8.107205028E1,-1.196411327E-1,7.189833641E0,6.748358250E0
8.112014987E1,-1.764706671E-1,7.273881912E0,6.541976929E0
8.116824935E1,-1.489532143E-1,7.311867714E0,6.517450809E0
8.121634883E1,-2.072782665E-1,7.296314240E0,6.643671989E0
8.126444841E1,-2.279163599E-1,7.252944469E0,6.824928284E0
8.131254789E1,-2.341975123E-1,7.287640572E0,6.636493683E0
8.136064747E1,-1.537388563E-1,7.286444187E0,6.603592396E0
8.140874695E1,-1.232303679E-1,7.260122776E0,6.605087757E0
8.145684648E1,-2.015953064E-1,7.233502865E0,6.704390049E0
8.150494601E1,-2.443670183E-1,7.287939548E0,6.592226505E0
8.155304549E1,-2.222333997E-1,7.364510059E0,6.422336102E0
8.160114508E1,-2.371885478E-1,7.296912670E0,6.614659309E0
8.164924456E1,-2.219343036E-1,7.272087097E0,6.728318214E0
8.169734414E1,-1.444666684E-1,7.271189690E0,6.678667068E0
8.174544362E1,-1.836491376E-1,7.290033340E0,6.591030121E0
8.179354320E1,-2.078764737E-1,7.326224804E0,6.415157318E0
8.184164268E1,-2.739782035E-1,7.303493023E0,6.601199627E0
8.188974226E1,-2.865405083E-1,7.304689407E0,6.616752625E0
8.193784174E1,-2.515454888E-1,7.296912670E0,6.650252342E0
8.198594133E1,-1.878365725E-1,7.341478825E0,6.564409733E0
8.203404080E1,-1.214357466E-1,7.334599495E0,6.609574318E0
8.208214039E1,-1.570289880E-1,7.289734364E0,6.717550278E0
8.213023987E1,-2.533400953E-1,7.249654293E0,6.598806858E0
8.217833945E1,-3.583251834E-1,7.290332317E0,6.474678993E0
8.222643893E1,-1.896311939E-1,7.322635651E0,6.506383896E0
8.227453851E1,-4.277170449E-2,7.330112934E0,6.468996048E0
8.232263804E1,-3.317050338E-1,7.231708050E0,6.946663380E0
8.237073758E1,-3.490529954E-1,7.383054256E0,6.433103561E0
8.241883716E1,-3.903291821E-1,7.348657608E0,6.562016964E0
8.246693664E1,-2.111666054E-1,7.274479866E0,6.537191391E0
8.251503622E1,-8.853443712E-2,7.218846798E0,6.647261143E0
8.256313570E1,-1.232303679E-1,7.288836956E0,6.589534283E0
8.261123528E1,-3.442673683E-1,7.354041100E0,6.601498604E0
8.265933476E1,-4.037888348E-1,7.400103092E0,6.696014881E0
8.270743435E1,-3.888336718E-1,7.298408031E0,6.731009960E0
8.275553383E1,-2.769692242E-1,7.274479866E0,6.500102520E0
8.280363341E1,-1.480558962E-1,7.308577538E0,6.227021694E0
8.285173289E1,-7.686942816E-2,7.242774963E0,6.504290104E0
8.289983247E1,-1.582254022E-1,7.229016304E0,6.853941441E0
8.294793195E1,-3.245265782E-1,7.353742123E0,6.763911247E0
8.299603154E1,-3.768695593E-1,7.376174927E0,6.663413048E0
8.304413101E1,-3.134597540E-1,7.401897907E0,6.381359100E0
8.309223060E1,-2.401795685E-1,7.258627415E0,6.577869415E0
8.314033008E1,-1.516451389E-1,7.150651455E0,6.763313293E0
8.318842966E1,-1.453639716E-1,7.232904434E0,6.613163471E0
8.323652914E1,-2.913261652E-1,7.344171047E0,6.475576401E0
8.328462872E1,-3.840480447E-1,7.408777237E0,6.566204548E0
8.333272820E1,-3.616153300E-1,7.297211647E0,6.870092869E0
8.338082779E1,-2.847459018E-1,7.231708050E0,6.841678143E0
8.342892726E1,-1.827518344E-1,7.232904434E0,6.535097599E0
8.347702674E1,-7.926224917E-2,7.254439831E0,6.364310265E0
8.352512633E1,-7.537391037E-2,7.240382195E0,6.464808464E0
8.357322580E1,-2.350948304E-1,7.196712971E0,6.871887684E0
8.362132539E1,-3.200400174E-1,7.220940590E0,6.852146626E0
8.366942487E1,-3.571287692E-1,7.286144733E0,6.715456963E0
8.371752435E1,-3.678964674E-1,7.309773922E0,6.641877651E0
8.376562393E1,-2.608176768E-1,7.289434910E0,6.463014126E0
8.381372341E1,-2.306082845E-1,7.211070061E0,6.665506363E0
8.386182289E1,-5.234299600E-2,7.249654293E0,6.468397617E0
8.390992247E1,-9.152546525E-2,7.191628456E0,6.851249218E0
8.395802195E1,-1.743769497E-1,7.221239567E0,6.853642464E0
8.400612143E1,-3.475574851E-1,7.288836956E0,6.703492641E0
8.405422101E1,-1.791625917E-1,7.243073940E0,6.625127792E0
8.410232049E1,-2.656033039E-1,7.199405193E0,6.787839413E0
8.415041997E1,-3.272185028E-1,7.156334400E0,6.713961124E0
8.419851945E1,-2.350948304E-1,7.188637257E0,6.648756981E0
8.424661898E1,-1.995015889E-1,7.230212688E0,6.558427811E0
8.429471851E1,-2.123630047E-1,7.195816040E0,6.880262375E0
8.434281799E1,-2.566302419E-1,7.223333359E0,6.794419765E0
8.439091747E1,-2.542374134E-1,7.258029461E0,6.783652306E0
8.443901695E1,-1.833500415E-1,7.264011383E0,6.584449768E0
8.448711643E1,-9.990034252E-2,7.164709091E0,6.676573277E0
8.453521596E1,-6.729813665E-2,7.159624577E0,6.688537598E0
8.458331549E1,-1.842473447E-1,7.192824841E0,6.797709942E0
8.463141497E1,-1.642074585E-1,7.255636692E0,6.588337898E0
8.467951445E1,-2.617149651E-1,7.267002583E0,6.669394970E0
8.472761393E1,-3.732803464E-1,7.215855598E0,6.813861370E0
8.477571341E1,-3.732803464E-1,7.238886833E0,6.698108673E0
8.482381659E1,-2.703889608E-1,7.230212688E0,6.631109715E0
8.487191237E1,-2.087737769E-1,7.191329479E0,6.717550278E0
8.492001185E1,-2.051845491E-1,7.159026146E0,6.786045074E0
8.496811133E1,-2.225325108E-1,7.235895634E0,6.672984123E0
8.501621080E1,-3.427718580E-1,7.235596657E0,6.736692905E0
8.506431028E1,-2.757728100E-1,7.264310360E0,6.596413612E0
8.511240976E1,-1.645065546E-1,7.170691490E0,6.791429043E0
8.516050924E1,-9.511470050E-2,7.139584541E0,6.754041195E0
8.520860872E1,-2.015953064E-1,7.161718369E0,6.793522358E0
8.525670810E1,-2.000997961E-1,7.277172089E0,6.567400932E0
8.530480758E1,-1.106680483E-1,7.307979584E0,6.507580280E0
8.535290706E1,-1.304088384E-1,7.202695370E0,6.819245338E0
8.540100654E1,-1.202393398E-1,7.135396957E0,6.939185619E0
8.544910601E1,-1.199402362E-1,7.180262566E0,6.829115868E0
8.549720539E1,-1.555334777E-1,7.230511665E0,6.625426769E0
8.554530487E1,-3.523431420E-1,7.230511665E0,6.567101955E0
8.559340435E1,-2.467598319E-1,7.222136974E0,6.631109715E0
8.564150383E1,-2.769692242E-1,7.221538544E0,6.723532677E0
8.568960320E1,-2.132603228E-1,7.239484787E0,6.671787739E0
8.573770268E1,-1.800599098E-1,7.238288403E0,6.722036839E0
8.578580216E1,-2.446661144E-1,7.222734928E0,6.883253574E0
8.583390159E1,-3.852444589E-1,7.227819920E0,6.735496521E0
8.588200101E1,-2.132603228E-1,7.258029461E0,6.430411816E0
8.593010049E1,-1.594218016E-1,7.200003147E0,6.550651073E0
8.597819987E1,-3.044866920E-1,7.158128738E0,6.920940399E0
8.602629935E1,-3.843471408E-1,7.251748085E0,6.818946362E0
8.607439877E1,-2.404786795E-1,7.254439831E0,6.597609997E0
8.612249820E1,-2.461616248E-1,7.269993305E0,6.503692150E0
8.617059768E1,-2.805584669E-1,7.187141895E0,6.712465763E0
8.621869706E1,-2.629113793E-1,7.156633377E0,6.762714863E0
8.626679654E1,-1.250249892E-1,7.196413994E0,6.708278179E0
8.631489591E1,-1.893320978E-1,7.243672371E0,6.760322094E0
8.636299539E1,-2.123630047E-1,7.242475986E0,6.682256222E0
8.641109476E1,-2.440679073E-1,7.193123817E0,6.927819729E0
8.645919414E1,-4.531407952E-1,7.237690449E0,6.703492641E0
8.650729362E1,-2.721835673E-1,7.236793041E0,6.562315941E0
8.655539299E1,-2.171486616E-1,7.148856640E0,6.607181549E0
8.660349247E1,-2.596212626E-1,7.126124859E0,6.847660065E0
8.665159185E1,-3.990031779E-1,7.173084259E0,6.801000118E0
8.669969122E1,-3.188436031E-1,7.295417309E0,6.611967087E0
8.674779070E1,-1.719841212E-1,7.285546780E0,6.579664230E0
8.679589008E1,-1.226321608E-1,7.163512707E0,6.862017155E0
8.684398945E1,-1.462612897E-1,7.113562584E0,6.866802692E0
8.689208888E1,-2.195414752E-1,7.182356358E0,6.766304016E0
8.694018830E1,-2.183450609E-1,7.241279602E0,6.638288021E0
8.698828768E1,-3.942175210E-1,7.252645493E0,6.661917210E0
8.703638706E1,-3.655036688E-1,7.199405193E0,6.691827774E0
8.708448643E1,-1.749751568E-1,7.173682213E0,6.771389008E0
8.713258586E1,-1.357926875E-1,7.137191772E0,6.864708900E0
8.718068529E1,-2.383849621E-1,7.243672371E0,6.620641232E0
8.722878466E1,-3.017947674E-1,7.225128174E0,6.605087757E0
8.727688404E1,-2.961117923E-1,7.183851719E0,6.783053875E0
8.732498341E1,-2.748754919E-1,7.178767204E0,6.663413048E0
8.737308279E1,-2.739782035E-1,7.154240608E0,6.713363171E0
8.742118216E1,-3.517449200E-1,7.161119938E0,6.626025200E0
8.746928154E1,-3.182454109E-1,7.202396393E0,6.745068073E0
8.751738091E1,-5.081757307E-1,7.173084259E0,7.036693096E0
8.756548028E1,-4.731806815E-1,7.215257645E0,7.010671139E0
8.761357966E1,-3.188436031E-1,7.286743164E0,6.587141514E0
8.766167904E1,-3.649054468E-2,7.233502865E0,6.608377934E0
8.770977841E1,-1.016949583E-2,7.108478069E0,6.828517437E0
8.775787778E1,-2.081755698E-1,7.165905476E0,6.811768055E0
8.780597716E1,-1.833500415E-1,7.201199532E0,6.623931408E0
8.785407654E1,-5.443671346E-2,7.274180889E0,6.466004848E0
8.790217591E1,1.824527234E-2,7.173084259E0,6.953243732E0
8.795027528E1,-1.974078640E-2,7.219744205E0,6.783652306E0
8.799837466E1,-1.283151209E-1,7.297510624E0,6.656832695E0
8.804647398E1,-2.195414752E-1,7.278966427E0,6.624529362E0
8.809457331E1,-2.219343036E-1,7.212565422E0,6.732804775E0
8.814267268E1,-1.633101404E-1,7.202994347E0,6.614359856E0
8.819077206E1,-1.573280841E-1,7.245167732E0,6.469594002E0
8.823887143E1,-9.391828626E-2,7.280162811E0,6.597909451E0
8.828697075E1,-1.301097274E-1,7.264609337E0,6.745965004E0
8.833507008E1,-5.982056609E-4,7.299903870E0,6.655336857E0
8.838316945E1,-8.255238086E-2,7.283154011E0,6.696314335E0
8.843126883E1,5.413761362E-2,7.293921471E0,6.608377934E0
8.847936810E1,-9.571290575E-3,7.224529743E0,6.672386169E0
8.852746747E1,7.118647546E-2,7.233502865E0,6.619743824E0
8.857556685E1,7.208377868E-2,7.256533623E0,6.582056999E0
8.862366612E1,-5.952146277E-2,7.235297680E0,6.795616150E0
8.867176549E1,7.806584239E-2,7.320242882E0,6.501298904E0
8.871986482E1,-7.896314561E-2,7.334898949E0,6.522236347E0
8.876796414E1,-5.802594870E-2,7.240681171E0,6.844070911E0
8.881606351E1,-2.572284266E-2,7.233502865E0,6.808776855E0
8.886416284E1,-5.264209956E-2,7.246065140E0,6.701697826E0
8.891226216E1,-1.115653589E-1,7.283154011E0,6.509075642E0
8.896036148E1,5.982056609E-4,7.307082176E0,6.520142555E0
8.900846080E1,-1.100698411E-1,7.227221489E0,6.771986961E0
8.905656013E1,2.303091809E-2,7.244868755E0,6.820142746E0
8.910465945E1,-1.154536903E-1,7.287640572E0,6.555137634E0
8.915275877E1,2.691925503E-2,7.290930748E0,6.441478729E0
8.920085810E1,-1.235294715E-1,7.243672371E0,6.647560596E0
8.924895742E1,-1.980060786E-1,7.273582458E0,6.661618233E0
8.929705674E1,-2.111666054E-1,7.283751965E0,6.632306099E0
8.934515607E1,-2.267199457E-1,7.313363075E0,6.553342819E0
8.939325539E1,-2.099701911E-1,7.290631294E0,6.661917210E0
8.944135466E1,-2.362912297E-1,7.345367432E0,6.379564285E0
8.948945404E1,-1.468594968E-1,7.274778843E0,6.792625427E0
8.953755330E1,-8.614161611E-2,7.290631294E0,6.661019802E0
8.958565263E1,-1.561316848E-1,7.278069019E0,6.753442764E0
8.963375195E1,-2.063809484E-1,7.270890713E0,6.692126751E0
8.968185122E1,-2.255235314E-1,7.327421188E0,6.442375660E0
8.972995060E1,-1.429711580E-1,7.326523781E0,6.374180317E0
8.977804987E1,-9.601201117E-2,7.314260483E0,6.504888535E0
8.982614919E1,-8.075776696E-2,7.299604416E0,6.689435005E0
8.987424851E1,-1.651047617E-1,7.317849636E0,6.695117950E0
8.992234778E1,-1.716850251E-1,7.280761242E0,6.777071953E0
8.997044711E1,-1.609173268E-1,7.319644451E0,6.550950050E0
9.001854643E1,-1.112662554E-1,7.321738243E0,6.570990086E0
9.006664570E1,-1.498505175E-1,7.260721207E0,6.593721867E0
9.011474502E1,-1.013958603E-1,7.265207767E0,6.579364777E0
9.016284435E1,-1.118644550E-1,7.265506744E0,6.615556240E0
9.021094362E1,-1.887338907E-1,7.309773922E0,6.621239185E0
9.025904294E1,-2.279163599E-1,7.287042141E0,6.669394970E0
9.030714226E1,-1.501496136E-1,7.315456867E0,6.538088799E0
9.035524154E1,-1.507478207E-1,7.230511665E0,6.629913330E0
9.040334086E1,-6.490531564E-2,7.198208809E0,6.707081795E0
9.045144013E1,-4.157529399E-2,7.198208809E0,6.841379166E0
9.049953945E1,-6.939185411E-2,7.268796921E0,6.679863453E0
9.054763872E1,-1.977069676E-1,7.341478825E0,6.599404812E0
9.059573804E1,-2.069791555E-1,7.351349354E0,6.574878216E0
9.064383737E1,-2.012962103E-1,7.293024540E0,6.684051037E0
9.069193664E1,-1.301097274E-1,7.240083218E0,6.644270420E0
9.074003591E1,-1.253240854E-1,7.259225845E0,6.565307140E0
9.078813523E1,-1.298106313E-1,7.289135933E0,6.559025764E0
9.083623456E1,-2.213360965E-1,7.292426109E0,6.682854652E0
9.088433383E1,-1.926222295E-1,7.313961506E0,6.644270420E0
9.093243310E1,-1.734796464E-1,7.317550659E0,6.676573277E0
9.098053237E1,-1.594218016E-1,7.262516022E0,6.638288021E0
9.102863169E1,-1.124626622E-1,7.269993305E0,6.486044884E0
9.107673101E1,-4.905286431E-2,7.230511665E0,6.579664230E0
9.112483028E1,-9.750752151E-2,7.275975227E0,6.551847458E0
9.117292956E1,-2.368894368E-1,7.273582458E0,6.754938126E0
9.122102883E1,-1.998006850E-1,7.349853992E0,6.598806858E0
9.126912815E1,-6.400800496E-2,7.322934628E0,6.606583118E0
9.131722742E1,-6.340979785E-2,7.268796921E0,6.702296257E0
9.136532674E1,-1.609173268E-1,7.282555580E0,6.658926487E0
9.141342601E1,-1.722832322E-1,7.255337238E0,6.649653912E0
9.146152529E1,-1.366899908E-1,7.260122776E0,6.541378975E0
9.150962456E1,-5.443671346E-2,7.293622494E0,6.544968128E0
9.155772383E1,-2.000997961E-1,7.280162811E0,6.666703224E0
9.160582310E1,-2.694916427E-1,7.262814999E0,6.828517437E0
9.165392242E1,-1.360917836E-1,7.305885792E0,6.512365818E0
9.170202169E1,-6.640082598E-2,7.269993305E0,6.696014881E0
9.175012096E1,-9.332008660E-2,7.240083218E0,6.730710983E0
9.179822023E1,-1.360917836E-1,7.226922512E0,6.820142746E0
9.184631950E1,-2.709871531E-1,7.279564857E0,6.591628075E0
9.189441877E1,-2.847459018E-1,7.278667450E0,6.549155712E0
9.194251804E1,-2.258226424E-1,7.250252724E0,6.657430649E0
9.199061732E1,-2.458625287E-1,7.227520943E0,6.753442764E0
9.203871659E1,-2.772683203E-1,7.240980625E0,6.635596275E0
9.208681586E1,-2.512463741E-2,7.289734364E0,6.426822662E0
9.213491513E1,-2.096710801E-1,7.236194611E0,6.620342255E0
9.218301440E1,4.995017126E-2,7.207779884E0,6.810870647E0
9.223111367E1,-3.409772366E-2,7.207480907E0,6.778268337E0
9.227921294E1,-1.773679852E-1,7.255935669E0,6.784250259E0
9.232731221E1,-1.875374764E-1,7.325028419E0,6.536593437E0
9.237541148E1,-2.039881349E-1,7.215556622E0,6.760023117E0
9.242351070E1,2.183450572E-2,7.302296638E0,6.458826542E0
9.247160997E1,-1.674975827E-2,7.202096939E0,6.862914562E0
9.251970924E1,-6.251249462E-2,7.182655334E0,6.900302410E0
9.256780851E1,-6.520441920E-2,7.228417873E0,6.686742783E0
9.261590778E1,-1.025922745E-1,7.313961506E0,6.460621357E0
9.266400706E1,-1.154536903E-1,7.300800800E0,6.599404812E0
9.271210627E1,-1.360917836E-1,7.240083218E0,6.797111988E0
9.276020554E1,-8.464609832E-2,7.214659214E0,6.795018196E0
9.280830476E1,-4.187439568E-3,7.268796921E0,6.489335060E0
9.285640404E1,-2.452643216E-2,7.281359196E0,6.403791428E0
9.290450330E1,3.768695518E-2,7.242177010E0,6.518946171E0
9.295260252E1,-1.136590727E-2,7.238288403E0,6.805785656E0
9.300070180E1,-1.995015889E-1,7.301100254E0,6.883253574E0
9.304880101E1,-1.992024779E-1,7.281359196E0,6.900003433E0
9.309690028E1,-1.133599728E-1,7.296314240E0,6.547659874E0
9.314499950E1,-2.437688112E-1,7.183253765E0,6.865606308E0
9.319309877E1,-5.174478889E-2,7.270591736E0,6.346364021E0
9.324119799E1,-1.196411345E-2,7.231110096E0,6.560521603E0
9.328929726E1,-3.032902777E-1,7.229016304E0,6.778567314E0
9.333739648E1,-1.477568001E-1,7.392924786E0,6.238687038E0
9.338549570E1,5.682953633E-3,7.394420147E0,6.438487530E0
9.343359497E1,-5.114658549E-2,7.297510624E0,6.967899323E0
9.348169419E1,-3.481557071E-1,7.141079903E0,7.363313675E0
9.352979341E1,-1.815554202E-1,7.250551701E0,6.515357018E0
9.357789268E1,-7.836493850E-2,7.335197926E0,6.048158169E0
9.362599190E1,-1.244267747E-1,7.253841877E0,6.498009205E0
9.367409112E1,-3.125624657E-1,7.208976269E0,6.839584351E0
9.372219034E1,-2.267199457E-1,7.289135933E0,6.698108673E0
9.377028961E1,-5.533402413E-2,7.380661488E0,6.390631199E0
9.381838883E1,-3.020938635E-1,7.447660446E0,6.515954971E0
9.386648805E1,-2.560320199E-1,7.427919865E0,6.562016964E0
9.391458726E1,-1.531406492E-1,7.279564857E0,6.751947403E0
9.396268648E1,-9.780662507E-2,7.212864876E0,6.919744015E0
9.401078570E1,2.991028363E-3,7.170392036E0,6.919145584E0
9.405888492E1,-7.477571070E-2,7.263712406E0,6.575775623E0
9.410698414E1,-1.977069676E-1,7.388139248E0,6.200401783E0
9.415508336E1,-2.973082066E-1,7.416254520E0,6.252445698E0
9.420318258E1,-2.165504545E-1,7.366902828E0,6.445665836E0
9.425128180E1,-2.057827413E-1,7.331010342E0,6.658328056E0
9.429938101E1,-1.205384433E-1,7.359126091E0,6.532405853E0
9.434748023E1,-7.716853172E-2,7.436294556E0,6.428617001E0
9.439557945E1,-1.606182158E-1,7.414759159E0,6.550352097E0
9.444367867E1,-1.782652885E-1,7.404589653E0,6.597909451E0
9.449177784E1,-1.139581800E-1,7.381558895E0,6.473183632E0
9.453987706E1,-8.195417374E-2,7.359724045E0,6.510272026E0
9.458797627E1,8.673981763E-3,7.333403111E0,6.545267105E0
9.463607549E1,-8.584251255E-2,7.367800236E0,6.561419010E0
9.468417471E1,-1.645065546E-1,7.402495861E0,6.531807423E0
9.473227388E1,-1.947159469E-1,7.449754238E0,6.399005890E0
9.478037310E1,-1.082752272E-1,7.393223763E0,6.559025764E0
9.482847232E1,-3.140579537E-2,7.374679565E0,6.538986206E0
9.487657148E1,-4.546362907E-2,7.346862793E0,6.554539204E0
9.492467070E1,-9.870393202E-3,7.434799194E0,6.323632240E0
9.497276987E1,-1.594218016E-1,7.396812916E0,6.544968128E0
9.502086909E1,-1.920240223E-1,7.434799194E0,6.538686752E0
9.506896825E1,-1.737787426E-1,7.450950623E0,6.404688835E0
9.511706747E1,-7.926224917E-2,7.399505138E0,6.439384937E0
9.516516664E1,-9.870393574E-2,7.370491982E0,6.621837616E0
9.521326586E1,-4.157529399E-2,7.389036179E0,6.633801460E0
9.526136502E1,-7.836493850E-2,7.459026337E0,6.390930176E0
9.530946424E1,-9.541380405E-2,7.442874908E0,6.430710793E0
9.535756341E1,-6.520441920E-2,7.417450905E0,6.497111797E0
9.540566258E1,-7.716853172E-2,7.413263798E0,6.449255466E0
9.545376180E1,-6.311069429E-2,7.393822193E0,6.434898376E0
9.550186096E1,3.230310604E-2,7.391428947E0,6.454339981E0
9.554996013E1,-5.383851007E-2,7.400402069E0,6.464808464E0
9.559805930E1,-9.900303930E-2,7.414759159E0,6.462116718E0
9.564615851E1,-1.178465188E-1,7.451848030E0,6.475276947E0
9.569425768E1,-8.913264424E-2,7.421040535E0,6.495915413E0
9.574235685E1,-7.836493850E-2,7.409973621E0,6.586244106E0
9.579045601E1,-9.870393202E-3,7.386643410E0,6.522236347E0
9.583855518E1,7.417750359E-2,7.441379547E0,6.388238430E0
9.588665440E1,-9.571290575E-3,7.407580853E0,6.458527565E0
9.593475357E1,-1.854437590E-2,7.396513939E0,6.565307140E0
9.598285273E1,-1.525424421E-2,7.415357590E0,6.462415695E0
9.603095190E1,2.243271284E-2,7.429116249E0,6.465705872E0
9.607905107E1,-2.542374097E-2,7.451848030E0,6.565008163E0
9.612715023E1,-3.768695518E-2,7.427321434E0,6.652645111E0
9.617524940E1,1.420738399E-1,7.425527096E0,6.390631199E0
9.622334857E1,1.776670814E-1,7.384849072E0,6.360720634E0
9.627144773E1,1.603191197E-1,7.357032299E0,6.508776665E0
9.631954685E1,-4.965107143E-2,7.372884750E0,6.537490368E0
9.636764601E1,-1.193420291E-1,7.487441063E0,6.393621922E0
9.641574518E1,-1.579262912E-1,7.530511856E0,6.305386543E0
9.646384435E1,-6.939185411E-2,7.460222721E0,6.457630157E0
9.651194351E1,2.003988922E-1,7.414759159E0,6.440282345E0
9.656004263E1,-7.417750359E-2,7.438089371E0,6.678069115E0
9.660814180E1,7.357929647E-2,7.409674644E0,6.615257263E0
9.665624096E1,1.435693540E-2,7.440182686E0,6.426523209E0
9.670434013E1,1.043868884E-1,7.436294556E0,6.374180317E0
9.675243924E1,-2.333002165E-2,7.431210041E0,6.441179276E0
9.680053841E1,1.944168471E-2,7.474878788E0,6.359524250E0
9.684863752E1,3.858426586E-2,7.476075172E0,6.441478729E0
9.689673669E1,-3.529413417E-2,7.445865631E0,6.562914371E0
9.694483586E1,1.331007630E-1,7.497909546E0,6.233303070E0
9.699293497E1,7.328019291E-2,7.438089371E0,6.462116718E0
9.704103414E1,3.589234129E-2,7.457530975E0,6.482754707E0
9.708913325E1,3.499503061E-2,7.482954502E0,6.341578007E0
9.713723242E1,-1.495514158E-2,7.438687325E0,6.503093719E0
9.718533154E1,-1.196411345E-2,7.489534855E0,6.375077724E0
9.723343065E1,-1.001994461E-1,7.459026337E0,6.592824459E0
9.728152982E1,9.272187948E-3,7.485646725E0,6.328417778E0
9.732962893E1,-2.392822690E-2,7.449754238E0,6.350252151E0
9.737772805E1,-5.353940651E-2,7.438388348E0,6.471089840E0
9.742582721E1,-5.443671346E-2,7.514958382E0,6.298806667E0
9.747392633E1,-1.707877219E-1,7.527820110E0,6.358028889E0
9.752202544E1,-4.127619043E-2,7.547560692E0,6.241079807E0
9.757012461E1,1.615155302E-2,7.486543655E0,6.497111797E0
9.761822372E1,8.673981763E-3,7.431509018E0,6.539285183E0
9.766632284E1,7.387840003E-2,7.477570534E0,6.320940018E0
9.771442195E1,-6.191428751E-2,7.545466900E0,6.101398468E0
9.776252107E1,-5.443671346E-2,7.553243637E0,6.203093529E0
9.781062023E1,2.303091809E-2,7.455736160E0,6.708876610E0
9.785871930E1,-5.054837838E-2,7.418946743E0,6.742375851E0
9.790681846E1,-3.080759197E-2,7.483253479E0,6.292226315E0
9.795491758E1,-2.153540403E-2,7.463811874E0,6.094519138E0
9.800301669E1,-3.469592705E-2,7.485646725E0,6.372983932E0
9.805111575E1,-1.166501082E-2,7.414759159E0,6.658328056E0
9.809921492E1,-1.582254022E-1,7.468597889E0,6.628118515E0
9.814731398E1,-3.499503061E-2,7.563114166E0,6.211169243E0
9.819541315E1,-1.914258115E-2,7.444071293E0,6.544968128E0
9.824351221E1,8.434699476E-2,7.398308277E0,6.567699909E0
9.829161133E1,1.944168359E-1,7.406384468E0,6.415755749E0
9.833971044E1,9.302098304E-2,7.453941822E0,6.303293228E0
9.838780956E1,-1.172483116E-1,7.545167923E0,6.372086525E0
9.843590867E1,-2.018944174E-1,7.546663284E0,6.541079998E0
9.848400773E1,-2.901297435E-2,7.488637447E0,6.405287266E0
9.853210685E1,6.879365444E-2,7.467401028E0,6.457929134E0
9.858020596E1,2.075773627E-1,7.475776196E0,6.294320107E0
9.862830502E1,1.133599728E-1,7.509275436E0,6.305685997E0
9.867640419E1,3.020938672E-2,7.584649563E0,6.169594288E0
9.872450325E1,-7.507480681E-2,7.585546970E0,6.411867142E0
9.877260232E1,1.704886183E-2,7.556832790E0,6.395416737E0
9.882070143E1,1.253240854E-1,7.449455261E0,6.595217228E0
9.886880054E1,1.298106313E-1,7.479664326E0,6.308078766E0
9.891689961E1,-9.571290575E-3,7.509574890E0,6.283552170E0
9.896499872E1,1.199402362E-1,7.626523972E0,5.928517342E0
9.901309784E1,1.453639716E-1,7.550252914E0,6.405885220E0
9.906119690E1,4.725824669E-2,7.450053215E0,6.802794933E0
9.910929596E1,1.824527234E-2,7.567899704E0,6.401698112E0
9.915739502E1,-1.585244946E-2,7.546663284E0,6.138188362E0
9.920549414E1,5.593222752E-2,7.498507977E0,6.344569206E0
9.925359325E1,-5.982056609E-4,7.527820110E0,6.451049805E0
9.930169232E1,7.776673418E-3,7.559525013E0,6.360720634E0
9.934979138E1,4.486542568E-2,7.566404343E0,6.219544411E0
9.939789044E1,3.170489892E-2,7.497012615E0,6.214160442E0
9.944598956E1,-1.495514158E-2,7.502097130E0,6.277570248E0
9.949408862E1,1.280160099E-1,7.485048294E0,6.187540054E0
9.954218773E1,1.522433460E-1,7.526324749E0,6.294619083E0
9.959028680E1,7.686942816E-2,7.511668682E0,6.455237389E0
9.963838586E1,-7.567301393E-2,7.491329670E0,6.742076874E0
9.968648492E1,-1.621137410E-1,7.536194801E0,6.382256031E0
9.973458398E1,-8.763712645E-2,7.505985737E0,6.324828625E0
9.978268305E1,1.196411345E-2,7.466204643E0,6.376872540E0
9.983078211E1,7.268198580E-2,7.470093250E0,6.200700760E0
9.987888117E1,-6.580262445E-3,7.471887589E0,6.442974091E0
9.992698023E1,-7.178468257E-2,7.529315472E0,6.456732750E0
9.997507930E1,4.725824669E-2,7.544270515E0,6.342176437E0
1.000231784E2,6.909275055E-2,7.502396107E0,6.351448536E0
1.000712774E2,1.627119333E-1,7.468298435E0,6.400202274E0
1.001193765E2,3.529413417E-2,7.479664326E0,6.443273067E0
1.001674755E2,-4.277170449E-2,7.469794273E0,6.509973049E0
