"Time (s)","Gyroscope x (rad/s)","Gyroscope y (rad/s)","Gyroscope z (rad/s)"
5.296106000E-2,-9.758564830E-2,-1.958585232E-1,3.680460155E-2
1.010593940E-1,-1.117882580E-1,-7.475458086E-2,-2.367100911E-3
1.491576230E-1,-1.672242396E-2,-2.067777216E-1,-4.657844082E-3
1.972558520E-1,1.453858167E-1,-1.553887278E-1,1.284343153E-1
2.453541850E-1,1.366809905E-1,-8.651372790E-2,7.360920310E-2
2.934524140E-1,2.619082667E-2,2.390008420E-2,4.176788032E-2
3.415506440E-1,-2.374736778E-2,4.046979360E-3,4.024071619E-2
3.896489770E-1,-5.482511222E-2,1.120936871E-1,5.803215317E-3
4.377472060E-1,-5.558869615E-2,-2.557996288E-2,1.145371469E-3
4.858454350E-1,-6.574432552E-2,2.901607659E-3,6.185005885E-3
5.339437690E-1,-2.443459071E-2,-2.596175298E-2,2.145662531E-2
5.820419980E-1,-1.010217592E-1,-1.802051067E-2,1.374445739E-3
6.301402270E-1,-9.071341902E-2,4.581485689E-2,-1.412624773E-2
6.782385600E-1,-1.062904745E-1,-7.254019380E-3,1.908952370E-2
7.263367890E-1,-3.184132650E-2,3.764454275E-2,-2.466366626E-2
7.744350190E-1,-3.886627033E-2,3.497200832E-2,1.359174121E-2
8.225333520E-1,-1.478292793E-1,-3.970621154E-2,-1.718057133E-2
8.706315810E-1,-7.612902671E-2,-3.489565104E-2,1.114828233E-2
9.187298100E-1,-5.070177838E-2,-2.443459071E-2,-1.267544460E-2
9.668280390E-1,-7.276926935E-2,-6.131555140E-2,9.926552884E-3
1.014926373E0,-1.098029464E-1,-2.725984156E-2,-6.795870606E-3
1.063024602E0,-3.802633286E-2,-2.199113183E-2,1.786779426E-2
1.111122831E0,3.634645417E-2,-4.352411628E-2,-1.389717404E-2
1.159221060E0,-4.245510325E-2,-6.337722298E-3,8.017600514E-3
1.207319394E0,-5.726857483E-2,-3.298669681E-2,3.611737862E-2
1.255417623E0,-2.328922041E-2,3.657552972E-2,4.917461425E-2
1.303515852E0,-1.527161920E-3,2.428187430E-2,6.979130208E-2
1.351614185E0,4.734201822E-3,-1.679878100E-3,4.352411628E-2
1.399712414E0,7.635809947E-3,5.184714869E-2,2.160934173E-2
1.447810644E0,-1.519526169E-2,-1.664606482E-2,-1.122464053E-2
1.495908873E0,5.062541738E-2,1.244636998E-2,-2.710712515E-2
1.544007206E0,3.268126398E-2,-3.588830587E-3,-1.420260593E-2
1.592105435E0,2.641990222E-2,-6.032289565E-2,-2.565632015E-2
1.640203664E0,-2.672533505E-3,3.703367710E-2,-1.244636998E-2
1.688301998E0,6.337722298E-3,-2.641990222E-2,-5.421424750E-3
1.736400227E0,-3.726275265E-2,9.926552884E-3,-2.367100911E-3
1.784498456E0,-1.817322709E-2,1.137735695E-2,-2.138026757E-3
1.832596685E0,-7.941242307E-3,-6.612611562E-2,-4.505127668E-3
1.880695019E0,2.443459118E-3,2.848157100E-2,-3.749182448E-2
1.928793248E0,1.366809942E-2,-3.619373962E-2,-2.886336111E-2
1.976891477E0,-6.414080039E-3,1.908952487E-3,-2.809977904E-2
2.024989706E0,-3.283398226E-3,-1.611155830E-2,2.313650399E-2
2.073088039E0,-9.086613543E-3,-2.985601686E-2,1.695149764E-2
2.121186269E0,3.665188793E-3,2.672533505E-3,2.886336111E-2
2.169284498E0,-1.893680729E-2,-3.229947388E-2,-3.359756200E-3
2.217382727E0,-1.626427472E-2,4.451677203E-2,-3.260490671E-2
2.265481060E0,-1.947131567E-2,8.704823442E-3,-2.687804960E-2
2.313579289E0,7.635809743E-5,1.748600416E-2,-1.794415340E-2
2.361677519E0,4.841103405E-2,1.588248461E-2,-9.773836471E-3
2.409775852E0,3.901898861E-2,2.267835476E-2,-1.450803829E-3
2.457874081E0,-3.604102135E-2,3.596466407E-2,3.817904973E-3
2.505972310E0,-2.443459118E-3,1.030834299E-2,1.702785492E-2
2.554070644E0,2.069304511E-2,2.748891525E-2,1.023198478E-2
2.602168873E0,-4.207331315E-2,-2.099847607E-2,1.542433538E-2
2.650267102E0,4.398226365E-2,5.795579776E-2,2.351829410E-2
2.698365331E0,2.092211880E-2,-6.108647678E-3,4.955640435E-2
2.746463664E0,-2.260199748E-2,-2.237292193E-2,4.986183718E-2
2.794561894E0,1.298087649E-2,1.580612548E-2,4.512763396E-2
2.842660123E0,-5.528326333E-2,2.985601686E-2,3.436114406E-3
2.890758456E0,-2.443459071E-2,2.809977904E-2,4.046979360E-3
2.938856685E0,5.421424750E-3,2.313650399E-2,7.024944760E-3
2.986954914E0,1.160643063E-2,5.421424750E-3,-1.832594397E-3
3.035053248E0,1.069013402E-2,-1.634063199E-2,-2.748891478E-3
3.083151477E0,-4.886918236E-3,1.305723470E-2,8.323032409E-3
3.131249706E0,5.115992390E-3,-4.963276442E-3,1.030834299E-2
3.179348039E0,-1.656970754E-2,3.497200832E-2,-6.337722298E-3
3.227446269E0,6.108647678E-3,-2.183841541E-2,8.017600514E-3
3.275544498E0,2.290742937E-3,2.687804960E-2,-1.153007243E-2
3.323642831E0,-1.870773360E-2,-9.315688163E-3,-3.894262947E-3
3.371741060E0,-2.703076601E-2,-7.483093534E-3,-5.497782957E-3
3.419839289E0,1.427896414E-2,2.527453005E-2,7.406735327E-3
3.467937519E0,4.276053514E-3,-3.123046272E-2,-9.468403645E-3
3.516035852E0,1.038470119E-2,7.712167688E-3,-9.697478265E-3
3.564134081E0,-9.621120058E-3,-2.596175298E-2,-1.947131567E-2
3.612232414E0,2.000582218E-2,1.756236190E-3,-8.475748822E-3
3.660330644E0,1.962403022E-2,6.490438245E-3,4.352411721E-3
3.708428873E0,-1.924224012E-2,-2.244928107E-2,3.817904799E-4
3.756527206E0,-4.963276442E-3,-1.748600416E-2,5.879573524E-3
3.804625435E0,1.282816008E-2,-1.374445739E-3,-1.427896414E-2
3.852723664E0,-9.926552884E-3,-1.282816008E-2,-1.855501719E-2
3.900821998E0,1.069013379E-3,2.390008420E-2,-5.039634649E-3
3.948920227E0,-2.718348242E-2,-8.093958721E-3,1.443168055E-2
3.997018456E0,-1.458439697E-2,1.389717404E-2,1.091920771E-2
4.045116789E0,-9.010255337E-3,-2.825249685E-3,2.779434808E-2
4.093215019E0,-4.352411721E-3,1.954767294E-2,3.283398226E-3
4.141312831E0,1.649334840E-2,3.283398226E-3,5.192350596E-3
4.189411581E0,-2.962694131E-2,2.703076601E-2,-1.687514037E-2
4.237509810E0,-1.542433538E-2,-9.621120058E-3,-2.634354308E-2
4.285608144E0,-3.665188793E-3,1.450803829E-3,-2.626718581E-2
4.333706373E0,1.870773360E-2,-1.740964688E-2,-2.138026804E-2
4.381804602E0,2.229656465E-2,-2.390008420E-2,-1.091920771E-2
4.429902935E0,-3.588830587E-3,1.275180187E-2,-2.977965865E-3
4.478001164E0,1.863137633E-2,-1.817322709E-2,-9.850194678E-3
4.526099498E0,3.054323839E-3,1.626427472E-2,2.061668551E-3
4.574197727E0,1.015562657E-2,-2.252563834E-2,-3.054323839E-3
4.622296060E0,4.589121789E-2,1.061377581E-2,-4.886918236E-3
4.670394914E0,1.435532235E-2,-9.621120058E-3,-1.985310577E-3
4.718492519E0,4.039343446E-2,-7.635809598E-4,1.603520010E-3
4.766590852E0,3.359756200E-3,2.374736778E-2,-4.352411721E-3
4.814689081E0,1.710421406E-2,-3.275762498E-2,-1.908952487E-3
4.862787414E0,5.390881747E-2,3.611737862E-2,-3.359756200E-3
4.910885644E0,3.054323897E-4,-3.306305781E-2,2.290742937E-3
4.958983977E0,3.283398226E-3,-1.412624773E-2,-2.397644334E-2
5.007082206E0,-2.794706449E-2,-1.229365356E-2,-8.781181648E-3
5.055180539E0,-1.611155830E-2,7.177661173E-3,-3.176496923E-2
5.103278769E0,2.970330045E-2,3.367391974E-2,-1.603520010E-3
5.151376998E0,-1.519526169E-2,-2.336557768E-2,-3.817904973E-3
5.199475331E0,2.672533505E-3,2.443459118E-3,1.404988952E-2
5.247573560E0,1.091920771E-2,1.030834299E-2,8.323032409E-3
5.295671894E0,-2.474002354E-2,4.810560029E-3,9.621120058E-3
5.343770123E0,-8.857538924E-3,6.108647678E-3,-5.879573524E-3
5.391868456E0,1.756236330E-2,3.512472380E-3,7.177661173E-3
5.439966685E0,2.466366626E-2,-1.626427472E-2,-3.588830587E-3
5.488065019E0,-1.099556591E-2,-5.345066893E-4,1.099556591E-2
5.536163248E0,9.468403645E-3,-4.123337101E-3,-3.436114406E-3
5.584261581E0,3.237583488E-2,2.390008420E-2,1.053741761E-2
5.632359810E0,-9.162971983E-4,-1.420260593E-2,-1.618791744E-2
5.680458144E0,1.542433538E-2,2.168569900E-2,6.872228696E-4
5.728556477E0,-1.588248461E-2,8.704823442E-3,-7.177661173E-3
5.776654706E0,-2.237292193E-2,1.947131567E-2,-2.825249685E-3
5.824753039E0,3.779725730E-2,1.069013402E-2,-1.298087649E-3
5.872851269E0,1.664606482E-2,-3.588830587E-3,6.795870606E-3
5.920949602E0,8.552107029E-3,-2.160934173E-2,-1.725693047E-2
5.969047831E0,-5.345066893E-4,3.932442144E-2,9.162971983E-4
6.017146164E0,-9.773836471E-3,-2.939786762E-2,-1.687514037E-2
6.065244394E0,5.031998456E-2,1.695149764E-2,9.850194678E-3
6.113342727E0,6.872228696E-4,-3.329212964E-2,-3.894262947E-3
6.161441060E0,1.687514037E-2,-1.076649129E-2,-3.283398226E-3
6.209539289E0,-1.985310577E-3,-1.687514037E-2,-9.315688163E-3
6.257637623E0,1.458439697E-2,-8.399390616E-3,-9.850194678E-3
6.305735852E0,3.000873141E-2,6.108647794E-4,-4.352411721E-3
6.353834185E0,-6.185005885E-3,5.879573524E-3,-5.345067009E-3
6.401932519E0,3.061959706E-2,-2.084576152E-2,-6.719512399E-3
6.450030748E0,-2.748891525E-2,2.573267929E-2,7.254019380E-3
6.498129081E0,-2.817613818E-2,-1.351538301E-2,-5.115992390E-3
6.546227310E0,1.664606482E-2,3.100138716E-2,6.795870606E-3
6.594325644E0,-3.054323839E-3,-2.252563834E-2,-9.239329956E-3
6.642423977E0,-4.810560029E-3,1.634063199E-2,-2.252563834E-2
6.690522206E0,1.893680729E-2,9.162971983E-4,-3.123046272E-2
6.738620539E0,-9.544761851E-3,-1.527161949E-4,-2.863428742E-2
6.786718873E0,-9.239329956E-3,2.474002354E-2,-1.244636998E-2
6.834817102E0,2.351829410E-2,-1.427896414E-2,-4.886918236E-3
6.882915435E0,5.574141163E-3,-8.170315996E-3,-1.733328775E-2
6.931013664E0,1.374445739E-3,6.032289471E-3,-9.850194678E-3
6.979111998E0,-9.010255337E-3,-4.428769648E-2,-3.039052337E-2
7.027210331E0,2.741255611E-2,-3.512472380E-3,-3.115410358E-2
7.075308560E0,1.985310577E-3,-3.275762498E-2,-5.612320080E-2
7.123406894E0,8.216131479E-2,-2.061668551E-3,-3.344484791E-2
7.171505227E0,6.039925665E-2,-4.802924395E-2,-1.947131567E-2
7.219603456E0,2.015853859E-2,-1.954767294E-2,3.894262947E-3
7.267701789E0,2.382372692E-2,1.748600416E-2,1.527161949E-4
7.315800123E0,-4.199695308E-3,-1.656970754E-2,-1.259908639E-2
7.363898352E0,2.306014486E-2,-1.702785492E-2,-9.468403645E-3
7.411996685E0,-2.176205814E-2,-1.198822167E-2,-1.259908639E-2
7.460095019E0,-1.588248461E-2,-1.481347065E-2,-3.856083751E-2
7.508193248E0,1.527161989E-2,-1.756236190E-3,-1.481347065E-2
7.556291581E0,-2.901607752E-2,-5.283980444E-2,-2.229656465E-2
7.604389914E0,-1.962403022E-2,-2.764163166E-2,-2.397644334E-2
7.652488144E0,2.496909723E-2,-5.345066637E-2,-3.718639165E-2
7.700586477E0,2.412915789E-2,-3.909534588E-2,-3.138317913E-2
7.748684810E0,4.108065739E-2,-2.061668597E-2,-1.443168055E-2
7.796783039E0,1.863137633E-2,-2.046396956E-2,1.443168055E-2
7.844881373E0,-4.046979360E-3,-3.504836559E-2,3.565923125E-2
7.892979706E0,1.817322709E-2,1.809686981E-2,3.649916872E-2
7.941078039E0,-3.023780696E-2,-3.268126398E-2,1.809686981E-2
7.989176269E0,2.168569900E-2,2.947422490E-2,1.473711245E-2
8.037274602E0,1.779143699E-2,4.505127668E-3,9.239329956E-3
8.085372935E0,2.825249685E-3,-5.726857111E-3,4.963276442E-3
8.133471164E0,2.565632015E-2,5.115992390E-3,1.259908639E-2
8.181569498E0,-9.773836471E-3,1.000291109E-2,-6.261364091E-3
8.229667831E0,-1.557705179E-2,1.397353224E-2,4.657844082E-3
8.277766060E0,-4.138609022E-2,5.574141163E-3,-1.550069358E-2
8.325864394E0,-6.643154658E-3,-1.053741761E-2,-1.374445739E-3
8.373962727E0,-1.985310577E-3,-4.199695215E-2,-1.122464053E-2
8.422060956E0,5.199986324E-2,-6.139190868E-2,1.313359290E-2
8.470159289E0,4.482220486E-2,1.313359290E-2,1.802051067E-2
8.518257623E0,-1.061377581E-2,1.160643063E-2,2.054032870E-2
8.566355852E0,-2.367101051E-2,4.680751264E-2,2.405280061E-2
8.614454185E0,-4.810560029E-3,-1.901316643E-2,2.122755162E-2
8.662552519E0,-4.825831577E-2,-2.275471389E-2,-1.244636998E-2
8.710650748E0,6.979130208E-2,-3.642281145E-2,-4.337139800E-2
8.758749081E0,7.200568914E-2,-8.323032409E-3,-1.664606482E-2
8.806847414E0,-5.650499370E-3,-1.901316643E-2,2.535088919E-2
8.854945644E0,1.007926930E-2,-2.038761228E-2,4.780016840E-2
8.903043977E0,-1.740964688E-2,2.603811212E-2,5.841394514E-2
8.951142310E0,-8.323032409E-3,-2.878700197E-2,3.313941509E-2
8.999240539E0,2.603811212E-2,-1.320995111E-2,3.275762498E-2
9.047338873E0,-2.412915789E-2,2.466366626E-2,1.450803829E-3
9.095437206E0,-3.940077871E-2,1.527161949E-4,-3.229947388E-2
9.143535435E0,-7.406735327E-3,1.412624773E-2,-3.871355578E-2
9.191633769E0,5.497782957E-3,-9.621120058E-3,-3.000873141E-2
9.239732102E0,2.825249685E-3,-2.115119249E-2,-7.635809598E-4
9.287830331E0,-5.925388262E-2,-8.689551800E-2,2.664897591E-2
9.335928664E0,1.924224012E-2,-7.101302966E-3,2.634354308E-2
9.384026998E0,1.122464053E-2,2.145662531E-2,-7.483093534E-3
9.432125331E0,1.382081583E-2,6.505709887E-2,-2.939786762E-2
9.480223560E0,2.855792828E-2,7.040216774E-2,1.977674663E-2
9.528321894E0,-3.313941509E-2,-1.511890348E-2,2.863428742E-2
9.576420123E0,-3.520108387E-2,4.024071619E-2,3.741546720E-2
9.624518456E0,-2.237292193E-2,-3.245219216E-2,1.817322709E-2
9.672616789E0,-1.427896414E-2,-1.565340906E-2,-4.963276442E-3
9.720715123E0,5.345067009E-3,-1.099556591E-2,-2.725984156E-2
9.768813352E0,-6.337722298E-3,-5.345066893E-4,-4.627300799E-2
9.816911685E0,8.704823442E-3,-1.412624773E-2,-3.863719851E-2
9.865009914E0,6.513345987E-2,1.832594397E-3,-1.466075517E-2
9.913108248E0,2.099847607E-2,1.702785492E-2,1.626427472E-2
9.961206581E0,-2.527453005E-2,5.115992390E-3,1.748600416E-2
1.000930491E1,-2.015853859E-2,6.162098423E-2,2.099847607E-2
1.005740314E1,-1.496618707E-2,2.695440874E-2,1.832594397E-3
1.010550148E1,-1.244636998E-2,5.009091273E-2,1.779143699E-2
1.015359981E1,-4.505127668E-3,8.475748822E-3,1.847865991E-2
1.020169804E1,2.321286127E-2,3.138317913E-2,3.245219216E-2
1.024979637E1,3.588830587E-3,-4.657844082E-3,2.756527252E-2
1.029789471E1,2.183841541E-2,-1.916588284E-2,6.643154658E-3
1.034599294E1,1.710421406E-2,-1.656970754E-2,6.948587019E-3
1.039409127E1,-2.741255611E-2,-1.107192412E-2,-2.092211880E-2
1.044218960E1,3.817904973E-3,6.337722298E-3,-1.565340906E-2
1.049028783E1,1.183550525E-2,-2.580903657E-2,1.351538301E-2
1.053838616E1,-1.023198478E-2,2.283107117E-2,1.259908639E-2
1.058648450E1,-2.672533505E-3,-2.107483521E-2,1.664606482E-2
1.063458273E1,-1.450803829E-3,2.504545636E-2,1.420260593E-2
1.068268106E1,3.046688065E-2,2.512181364E-2,2.619082667E-2
1.073077929E1,9.926552884E-4,2.741255611E-2,2.061668597E-2
1.077887762E1,3.405570984E-2,2.916879393E-2,3.222311661E-2
1.082697596E1,-7.101302966E-3,1.305723470E-2,3.214675933E-2
1.087507418E1,1.710421406E-2,1.145371469E-3,1.412624773E-2
1.092317252E1,4.451677203E-2,4.115701467E-2,2.099847607E-2
1.097127085E1,7.941242307E-3,1.313359290E-2,1.107192412E-2
1.101936908E1,1.000291109E-2,4.451677203E-2,1.145371469E-3
1.106746741E1,2.748891525E-2,4.772381112E-2,-5.574141163E-3
1.111556575E1,-9.162971750E-3,8.781181648E-3,2.977965865E-3
1.116366398E1,-9.239329956E-3,2.672533505E-3,-4.581485991E-4
1.121176231E1,1.893680729E-2,-1.840230078E-2,1.679878100E-3
1.125986064E1,6.261364091E-3,-3.153589368E-2,-9.010255337E-3
1.130795887E1,9.239329956E-3,-8.933897130E-3,6.872228696E-4
1.135605721E1,-9.697478265E-3,-4.909825698E-2,-1.580612548E-2
1.140415554E1,2.115119249E-2,-4.428769462E-3,-2.031125315E-2
1.145225377E1,-4.046979174E-2,-1.702785492E-2,-1.030834299E-2
1.150035210E1,-2.168569900E-2,-2.260199748E-2,-7.101302966E-3
1.154845044E1,-1.160643063E-2,-1.351538301E-2,5.192350596E-3
1.159654866E1,-2.893971838E-2,-1.046105940E-2,3.817904799E-4
1.164464700E1,-1.496618707E-2,3.054323839E-3,7.864884101E-3
1.169274533E1,2.359465137E-2,-2.695440874E-2,1.290451828E-2
1.174084356E1,-1.030834299E-2,3.207040019E-3,1.786779426E-2
1.178894189E1,-7.024944760E-3,-7.101302966E-3,2.443459071E-2
1.183704023E1,-2.496909723E-2,7.177661173E-3,1.481347065E-2
1.188513846E1,-6.337722298E-3,-3.130682046E-3,-7.254019380E-3
1.193323679E1,1.343902480E-2,1.389717404E-2,-6.490438245E-3
1.198133502E1,-6.108647678E-3,-6.872228812E-3,-7.024944760E-3
1.202943335E1,-1.137735695E-2,1.488982886E-2,5.345067009E-3
1.207753168E1,-3.787361458E-2,-1.130099874E-2,2.825249685E-3
1.212562991E1,-4.428769462E-3,-5.955931731E-3,1.069013379E-3
1.217372770E1,-6.421715766E-2,-1.450803829E-3,-1.359174121E-2
1.222182604E1,2.932151034E-2,-5.955931731E-3,-2.840521187E-2
1.226992427E1,3.352120519E-2,1.183550525E-2,-2.573267929E-2
1.231802260E1,-1.069013402E-2,-2.107483521E-2,-4.581485991E-4
1.236612093E1,3.588830587E-3,5.421424750E-3,9.850194678E-3
1.241421916E1,-1.893680729E-2,-1.374445762E-2,3.054323897E-4
1.246231750E1,9.773836471E-3,-1.756236330E-2,-3.207040019E-3
1.251041583E1,-1.595884189E-2,1.488982886E-2,-1.099556591E-2
1.255851406E1,1.893680729E-2,-5.803215317E-3,-4.963276442E-3
1.260661239E1,1.007926930E-2,1.672242396E-2,7.406735327E-3
1.265471073E1,-1.893680729E-2,-1.886045001E-2,1.420260593E-2
1.270280895E1,-5.192350596E-3,2.466366626E-2,2.031125315E-2
1.275090729E1,-2.664897591E-2,1.145371469E-3,7.635809743E-5
1.279900562E1,3.970621154E-3,1.626427472E-2,-5.039634649E-3
1.284710395E1,1.725693047E-2,1.259908639E-2,-2.901607659E-3
1.289520218E1,1.970038936E-2,-3.741546767E-3,1.137735695E-2
1.294330052E1,-1.710421406E-2,-4.046979360E-3,9.315688163E-3
1.299139885E1,-2.718348242E-2,9.086613543E-3,7.406735327E-3
1.303949708E1,-2.290742937E-3,1.007926930E-2,2.901607659E-3
1.308759541E1,-1.527161920E-3,1.145371469E-3,-8.399390499E-4
1.313569375E1,6.414080039E-3,1.802051067E-2,2.519817324E-3
1.318379198E1,-2.145662531E-2,1.756236190E-3,6.872228812E-3
1.323189031E1,-1.863137633E-2,-2.405280061E-2,3.054323897E-4
1.327998864E1,1.374445739E-3,2.519817278E-2,-6.872228812E-3
1.332808698E1,-1.572976820E-2,1.450803829E-3,-2.443459118E-3
1.337618520E1,1.091920771E-2,-9.086613543E-3,3.054323897E-4
1.342428354E1,5.574141070E-2,-1.992946304E-2,9.926552884E-4
1.347238187E1,-5.574141163E-3,-8.552107029E-3,-9.621120058E-3
1.352048020E1,9.162971750E-3,9.086613543E-3,-8.781181648E-3
1.356857843E1,-2.871064469E-2,6.566796452E-3,-1.718057133E-2
1.361667677E1,-2.031125315E-2,-7.788525894E-3,-2.367100911E-3
1.366477510E1,-2.015853859E-2,-6.872228696E-4,3.970621154E-3
1.371287343E1,1.679878123E-2,-2.183841541E-2,1.122464053E-2
1.376097166E1,8.017600514E-3,-2.359465137E-2,6.566796452E-3
1.380907000E1,2.138026757E-3,-3.130681813E-2,9.697478265E-3
1.385716833E1,-9.926552884E-4,-7.635809743E-5,-1.374445739E-3
1.390526666E1,-1.397353224E-2,-4.963276442E-3,2.443459118E-3
1.395336500E1,-2.947422490E-2,-1.473711245E-2,8.552107029E-3
1.400146322E1,-9.544761851E-3,1.496618707E-2,4.886918236E-3
1.404956156E1,-1.649334840E-2,-2.046396956E-2,6.872228696E-4
1.409765989E1,-2.115119249E-2,2.290742937E-3,-2.244928107E-2
1.414575823E1,2.672533318E-2,-1.221729536E-2,-1.595884189E-2
1.419385656E1,3.268126398E-2,-1.015562657E-2,-5.115992390E-3
1.424195489E1,-1.404988952E-2,-6.108647678E-3,7.559451740E-3
1.429005312E1,-1.191186346E-2,-1.542433538E-2,-1.908952487E-3
1.433815145E1,1.649334840E-2,-1.023198478E-2,-3.436114406E-3
1.438624979E1,-3.970621154E-3,-7.635809598E-4,-2.138026757E-3
1.443434812E1,-2.443459118E-3,3.130682046E-3,8.628465235E-3
1.448244645E1,7.864884101E-3,3.817904799E-4,1.916588284E-2
1.453054479E1,1.473711245E-2,-1.336266659E-2,2.115119249E-2
1.457864312E1,-2.390008420E-2,2.977965865E-3,-7.864884101E-3
1.462674135E1,-2.229656465E-2,8.323032409E-3,5.803215317E-3
1.467483968E1,-2.664897591E-2,4.505127668E-3,-1.030834299E-2
1.472293802E1,1.343902480E-2,1.076649129E-2,6.414080039E-3
1.477103635E1,-1.641699113E-2,-1.030834299E-2,8.093958721E-3
1.481913468E1,8.628465235E-3,-2.977965865E-3,1.519526169E-2
1.486723302E1,-8.093958721E-3,-2.267835476E-2,-2.901607659E-3
1.491533135E1,7.483093534E-3,2.443459118E-3,-6.108647678E-3
1.496342968E1,3.665188793E-3,7.559451740E-3,-5.650499370E-3
1.501152802E1,-4.199695308E-3,-1.786779426E-2,-3.588830587E-3
1.505962624E1,-3.054323897E-4,-5.268708803E-3,-6.795870606E-3
1.510772458E1,1.015562657E-2,-1.320995111E-2,-3.283398226E-3
1.515582291E1,-1.443168055E-2,-9.621120058E-3,-9.086613543E-3
1.520392124E1,4.276053514E-3,3.306305781E-2,3.436114406E-3
1.525201958E1,-3.443750367E-2,-4.581485875E-3,1.450803829E-3
1.530011791E1,-5.268708803E-3,1.511890348E-2,3.894262947E-3
1.534821625E1,-3.054323839E-3,-6.872228812E-3,-2.596175298E-3
1.539631458E1,3.283398226E-3,-3.512472380E-3,-6.261364091E-3
1.544441291E1,9.773836471E-3,5.497782957E-3,-9.926552884E-4
1.549251125E1,1.122464053E-2,-3.741546767E-3,1.168278884E-2
1.554060958E1,6.948587019E-3,-1.595884189E-2,1.175914705E-2
1.558870781E1,3.466657549E-2,5.345066893E-4,1.282816008E-2
1.563680614E1,-1.817322709E-2,-6.337722298E-3,9.926552884E-4
1.568490448E1,6.719512399E-3,1.641699113E-2,6.948587019E-3
1.573300281E1,2.947422490E-2,-2.588539571E-2,7.483093534E-3
1.578110114E1,-9.162971983E-4,-1.298087649E-3,-5.192350596E-3
1.582919948E1,3.970621154E-3,-9.239329956E-3,-1.275180187E-2
1.587729781E1,1.542433538E-2,-4.657844082E-3,-1.000291109E-2
1.592539614E1,1.832594397E-3,-8.399390616E-3,1.069013379E-3
1.597349448E1,2.474002354E-2,1.076649129E-2,5.879573524E-3
1.602159281E1,8.399390616E-3,1.466075517E-2,1.672242396E-2
1.606969114E1,-9.162971750E-3,5.421424750E-3,3.359756200E-3
1.611778948E1,2.351829410E-2,3.649916872E-2,9.086613543E-3
1.616588781E1,-3.741546767E-3,3.207040019E-3,5.726857111E-3
1.621398604E1,-3.107774630E-2,-1.679878100E-3,-8.475748822E-3
1.626208437E1,-3.359756200E-3,-5.192350596E-3,-1.382081583E-2
1.631018270E1,-1.282816008E-2,-2.260199748E-2,-2.695440874E-2
1.635828104E1,3.665188793E-3,-9.315688163E-3,-1.122464053E-2
1.640637937E1,1.038470119E-2,-1.030834299E-2,-4.123337101E-3
1.645447770E1,1.259908639E-2,9.697478265E-3,1.015562657E-2
1.650257604E1,-1.099556591E-2,-1.206457894E-2,2.099847607E-2
1.655067437E1,-6.566796452E-3,-2.557996288E-2,3.741546767E-3
1.659877270E1,1.527161920E-3,2.061668551E-3,-3.283398226E-3
1.664687104E1,-4.130972922E-2,-1.908952370E-2,-2.130390890E-2
1.669496937E1,2.794706449E-2,-6.795870606E-3,-5.955931731E-3
1.674306770E1,3.130681813E-2,-1.534797717E-2,1.908952487E-3
1.679116604E1,5.345067009E-3,-1.725693047E-2,1.817322709E-2
1.683926437E1,-9.697478265E-3,-1.557705179E-2,8.781181648E-3
1.688736270E1,-4.497491941E-2,-2.367100911E-3,-9.086613543E-3
1.693546093E1,-4.780016840E-2,5.345066893E-4,-1.519526169E-2
1.698355927E1,2.443459071E-2,-2.664897591E-2,-3.054323839E-3
1.703165760E1,3.191768378E-2,-1.000291109E-2,-1.038470119E-2
1.707975593E1,2.695440874E-2,-2.023489587E-2,1.679878100E-3
1.712785427E1,-1.985310577E-3,-1.603520010E-3,1.527161989E-2
1.717595260E1,-7.086031139E-2,-4.810560029E-3,-1.527161920E-3
1.722405093E1,1.550069358E-2,1.450803829E-3,2.596175298E-3
1.727214927E1,2.321286127E-2,-7.788525894E-3,3.741546767E-3
1.732024760E1,5.726857111E-3,-2.390008420E-2,-8.552107029E-3
1.736834593E1,-2.199113183E-2,6.490438245E-3,-1.244636998E-2
1.741644427E1,-4.589121789E-2,4.734201822E-3,-2.206749097E-2
1.746454260E1,1.725693047E-2,-4.734201822E-3,-1.412624773E-2
1.751264093E1,1.542433538E-2,2.290742996E-4,-2.138026804E-2
1.756073916E1,3.207040206E-2,-1.099556591E-2,-1.840230078E-2
1.760883750E1,1.977674663E-2,-1.626427472E-2,-1.153007243E-2
1.765693583E1,-1.282816008E-2,-1.130099874E-2,-9.086613543E-3
1.770503416E1,-1.084284950E-2,-8.017600514E-3,-6.337722298E-3
1.775313250E1,2.443459118E-3,6.337722298E-3,1.229365356E-2
1.780123083E1,7.024944760E-3,-1.175914705E-2,1.351538301E-2
1.784932916E1,-1.030834299E-2,2.390008420E-2,6.261364091E-3
1.789742750E1,-2.901607659E-3,-4.123337101E-3,1.069013379E-3
1.794552583E1,7.254019380E-3,2.267835476E-2,1.328630932E-2
1.799362416E1,-1.572976820E-2,-2.397644334E-2,2.000582218E-2
1.804172250E1,-5.345067009E-3,1.229365356E-2,1.985310577E-2
1.808982083E1,-3.306305781E-2,1.832594350E-2,2.649625950E-2
1.813791906E1,-2.237292193E-2,-5.955931731E-3,3.665188793E-3
1.818601739E1,4.886918142E-2,2.809977904E-2,7.177661173E-3
1.823411573E1,3.711003438E-2,-4.352411721E-3,7.177661173E-3
1.828221406E1,1.374445762E-2,8.093958721E-3,1.206457894E-2
1.833031239E1,-2.932151034E-2,1.130099874E-2,5.879573524E-3
1.837841073E1,3.665188793E-3,-1.374445739E-3,1.137735695E-2
1.842650906E1,-3.359756200E-3,3.901898861E-2,2.672533505E-3
1.847460739E1,-2.244928107E-2,2.489273995E-2,1.259908639E-2
1.852270572E1,-1.298087649E-2,2.626718581E-2,1.175914705E-2
1.857080406E1,-6.643154658E-3,7.101302966E-3,-2.290742996E-4
1.861890239E1,-3.894262947E-3,-5.039634649E-3,-9.239329956E-3
1.866700072E1,1.687514037E-2,-2.367100911E-3,-6.795870606E-3
1.871509906E1,-1.183550525E-2,-1.931859925E-2,-8.246674202E-3
1.876319739E1,2.779434808E-2,9.315688163E-3,-1.061377581E-2
1.881129572E1,1.351538301E-2,5.879573524E-3,8.628465235E-3
1.885939406E1,-2.519817324E-3,9.926552884E-4,3.741546767E-3
1.890749239E1,6.414080039E-3,-4.505127668E-3,5.115992390E-3
1.895559072E1,2.619082667E-2,7.559451740E-3,-6.490438245E-3
1.900368906E1,-1.557705179E-2,3.054323839E-3,-5.421424750E-3
1.905178739E1,-8.475748822E-3,1.145371469E-3,5.268708803E-3
1.909988583E1,-1.221729559E-3,-1.069013402E-2,3.588830587E-3
1.914798416E1,1.214093715E-2,4.810560029E-3,7.635809743E-5
1.919608250E1,-9.010255337E-3,1.672242396E-2,2.825249685E-3
1.924418083E1,-1.763872057E-2,8.933897130E-3,7.024944760E-3
1.929227916E1,-3.894262947E-3,2.886336111E-2,1.214093715E-2
1.934037750E1,8.857538924E-3,1.450803876E-2,1.137735695E-2
1.938847593E1,1.901316643E-2,2.061668551E-3,9.773836471E-3
1.943657427E1,1.015562657E-2,1.237001177E-2,1.221729559E-3
1.948467260E1,-7.330377586E-3,1.069013402E-2,-6.185005885E-3
1.953277093E1,-1.908952487E-3,9.086613543E-3,-9.850194678E-3
1.958086937E1,1.259908639E-2,-8.323032409E-3,5.574141163E-3
1.962896770E1,-1.069013379E-3,-1.641699113E-2,1.305723470E-2
1.967706604E1,-1.435532235E-2,-2.519817324E-3,-1.023198478E-2
1.972516448E1,4.657844082E-3,1.939495653E-2,7.635809598E-4
1.977326281E1,-1.771507785E-2,-2.466366626E-2,5.345066893E-4
1.982136125E1,-8.093958721E-3,6.948587019E-3,6.872228696E-4
1.986945958E1,-1.107192412E-2,-3.794997558E-2,-1.397353224E-2
1.991755791E1,1.168278884E-2,1.366809942E-2,-3.512472380E-3
1.996565635E1,-3.741546767E-3,-8.399390499E-4,5.650499370E-3
2.001375468E1,-5.879573524E-3,1.328630932E-2,9.315688163E-3
2.006185312E1,1.313359290E-2,1.153007243E-2,1.496618707E-2
2.010995145E1,1.443168055E-2,-2.855792828E-2,7.024944760E-3
2.015804989E1,1.061377581E-2,1.122464053E-2,-1.985310577E-3
2.020614822E1,-3.543015569E-2,2.214384731E-3,-1.824958436E-2
2.025424666E1,-1.382081583E-2,-1.244636998E-2,-1.618791744E-2
2.030234510E1,3.390299529E-2,8.323032409E-3,-1.374445739E-3
2.035044343E1,-1.007926930E-2,2.596175298E-3,4.810560029E-3
2.039854187E1,1.114828233E-2,1.107192412E-2,1.588248461E-2
2.044664031E1,-1.924224012E-2,2.519817324E-3,1.305723470E-2
2.049473864E1,-1.389717404E-2,5.421424750E-3,-1.985310577E-3
2.054283708E1,1.107192412E-2,8.704823442E-3,1.527161949E-4
2.059093552E1,1.687514037E-2,3.741546767E-3,4.428769462E-3
2.063903385E1,-1.076649129E-2,-3.054323839E-3,7.177661173E-3
2.068713229E1,7.712167688E-3,-1.588248461E-2,-6.795870606E-3
2.073523072E1,2.382372692E-2,-9.926552884E-3,-6.032289471E-3
2.078332916E1,3.741546767E-3,-7.024944760E-3,-1.359174121E-2
2.083142760E1,2.901607659E-3,1.656970754E-2,1.908952487E-3
2.087952604E1,-5.070177838E-2,-1.198822167E-2,-3.970621154E-3
2.092762437E1,1.130099874E-2,2.115119249E-2,3.817904799E-4
2.097572281E1,1.298087649E-3,-2.588539571E-2,-1.282816008E-2
2.102382124E1,3.833176568E-2,-4.963276442E-3,-3.436114406E-3
2.107191968E1,1.191186346E-2,-1.626427472E-2,-2.367100911E-3
2.112001812E1,1.427896414E-2,3.130682046E-3,8.857538924E-3
2.116811656E1,-4.734202102E-2,-1.061377581E-2,3.817904799E-4
2.121621500E1,-9.239329956E-3,-6.032289471E-3,-1.908952370E-2
2.126431343E1,8.323032409E-3,1.542433538E-2,-1.534797717E-2
2.131241187E1,6.032289471E-3,-3.031416424E-2,2.825249685E-3
2.136051031E1,-2.290742996E-4,9.926552884E-3,-2.825249685E-3
2.140860875E1,3.817904973E-3,-2.932151034E-2,-1.282816008E-2
2.145670718E1,-6.032289471E-3,1.076649129E-2,-1.374445762E-2
2.150480562E1,-1.832594397E-3,-3.359756200E-3,-3.283398226E-3
2.155290406E1,-1.557705179E-2,1.076649129E-2,-1.679878100E-3
2.160100250E1,1.168278884E-2,-2.367100911E-3,1.565340906E-2
2.164910093E1,7.635809947E-3,-2.107483521E-2,1.527161920E-3
2.169719937E1,1.137735695E-2,-5.955931731E-3,-7.330377586E-3
2.174529791E1,-1.450803876E-2,-7.177661173E-3,-2.038761228E-2
2.179339635E1,-1.366809942E-2,-7.406735327E-3,-8.704823442E-3
2.184149479E1,9.162971983E-4,-1.046105940E-2,-4.352411721E-3
2.188959323E1,-5.345066893E-4,1.970038936E-2,1.076649129E-2
2.193769166E1,-9.392046370E-3,-3.520108387E-2,1.114828233E-2
2.198579010E1,6.566796452E-3,-3.665188793E-3,6.566796452E-3
2.203388864E1,-6.108647794E-4,1.756236190E-3,-1.756236190E-3
2.208198708E1,-1.557705179E-2,-1.007926930E-2,8.704823442E-3
2.213008552E1,2.061668551E-3,2.367101051E-2,1.702785492E-2
2.217818395E1,-5.803215317E-3,-2.664897591E-2,5.115992390E-3
2.222628239E1,2.474002354E-2,-1.832594397E-3,8.170315996E-3
2.227438083E1,-7.483093534E-3,-1.748600416E-2,-1.267544460E-2
2.232247937E1,-1.122464053E-2,-1.473711245E-2,-3.046688065E-2
2.237057781E1,-1.588248461E-2,-5.497782957E-3,-2.893971838E-2
2.241867624E1,8.857538924E-3,-1.779143699E-2,-1.404988952E-2
2.246677468E1,2.367101051E-2,-6.948587019E-3,-1.450803829E-3
2.251487323E1,-8.552107029E-3,1.221729536E-2,4.428769462E-3
2.256297166E1,-1.481347065E-2,-3.588830587E-3,8.323032409E-3
2.261107010E1,-1.450803829E-3,-2.519817324E-3,2.214384731E-3
2.265916854E1,3.321577236E-2,-1.458439697E-2,1.069013379E-3
2.270726708E1,-3.329212964E-2,5.115992390E-3,-1.145371469E-3
2.275536552E1,1.664606482E-2,-2.267835476E-2,-9.086613543E-3
2.280346395E1,1.496618707E-2,2.916879393E-2,2.596175298E-3
2.285156239E1,3.054323897E-4,-4.199695308E-3,2.474002354E-2
2.289966093E1,9.468403645E-3,1.214093715E-2,1.458439697E-2
2.294775937E1,4.886918236E-3,7.635809598E-4,7.635809947E-3
2.299585781E1,1.603520010E-3,1.977674663E-2,-9.926552884E-4
2.304395624E1,-1.160643063E-2,9.392046370E-3,1.114828233E-2
2.309205479E1,-6.032289471E-3,-3.130682046E-3,4.581485875E-3
2.314015323E1,4.199695308E-3,7.635809598E-4,-6.032289471E-3
2.318825166E1,1.748600416E-2,-2.993237413E-2,-1.542433538E-2
2.323635020E1,-1.687514037E-2,-2.596175298E-3,-1.718057133E-2
2.328444864E1,-2.328922041E-2,-4.657844082E-3,-9.697478265E-3
2.333254708E1,-1.015562657E-2,3.741546767E-3,-3.817904799E-4
2.338064552E1,2.252563834E-2,6.643154658E-3,4.352411721E-3
2.342874406E1,-1.069013379E-3,-1.252272818E-2,-3.359756200E-3
2.347684250E1,-2.443459118E-3,-3.245219216E-2,-1.550069358E-2
2.352494093E1,-2.405280061E-2,6.108647794E-4,-1.328630932E-2
2.357303937E1,-2.901607752E-2,9.544761851E-3,-7.101302966E-3
2.362113791E1,-1.771507785E-2,-4.657844082E-3,5.268708803E-3
2.366923635E1,-3.817904973E-3,-2.214384731E-3,8.628465235E-3
2.371733479E1,-1.832594397E-3,-1.267544460E-2,1.840230078E-2
2.376544802E1,-5.597048625E-2,-5.574141163E-3,-8.170315996E-3
2.381353177E1,-3.283398226E-3,-6.490438245E-3,8.475748822E-3
2.386163020E1,1.466075517E-2,8.093958721E-3,6.490438245E-3
2.390972864E1,-1.580612548E-2,1.496618707E-2,1.320995111E-2
2.395782718E1,-1.221729536E-2,-2.573267929E-2,-9.315688163E-3
2.400592562E1,6.185005885E-3,-1.710421406E-2,-1.427896414E-2
2.405402406E1,1.970038936E-2,-1.962403022E-2,-1.061377581E-2
2.410212260E1,-2.428187430E-2,1.221729559E-3,-1.992946304E-2
2.415022104E1,1.504254527E-2,-6.185005885E-3,-9.926552884E-4
2.419831948E1,1.916588284E-2,-4.123337101E-3,-9.926552884E-4
2.424641791E1,1.130099874E-2,-1.794415340E-2,-4.810560029E-3
2.429451645E1,1.267544460E-2,-1.809686981E-2,-1.252272818E-2
2.434261489E1,2.061668551E-3,-2.000582218E-2,-1.450803876E-2
2.439071333E1,2.756527252E-2,-1.687514037E-2,-2.542724647E-2
2.443881177E1,8.857538924E-3,-2.267835476E-2,-2.107483521E-2
2.448691031E1,-3.130682046E-3,-5.650499370E-3,-2.641990222E-2
2.453500875E1,6.948587019E-3,-1.618791744E-2,-1.030834299E-2
2.458310718E1,5.726857111E-3,-1.466075517E-2,-9.086613543E-3
2.463120562E1,1.840230078E-2,-3.970621154E-3,-1.030834299E-2
2.467930406E1,1.046105940E-2,4.046979360E-3,-1.565340906E-2
2.472740260E1,-5.345066893E-4,-3.283398226E-3,-3.894262947E-3
2.477550104E1,-8.491020650E-2,7.024944760E-3,-1.305723470E-2
2.482359948E1,-1.015562657E-2,-1.298087649E-3,-7.254019380E-3
2.487169791E1,8.017600514E-3,-1.298087649E-2,-8.628465235E-3
2.491979645E1,-3.176496923E-2,-1.096502244E-1,-1.267544460E-2
2.496789489E1,-3.359756246E-2,-2.802342176E-2,-2.252563834E-2
2.501599375E1,2.183841541E-2,2.000582218E-2,3.817904799E-4
2.506409177E1,4.123337101E-3,-1.221729536E-2,7.635809598E-4
2.511219020E1,1.313359290E-2,3.107774630E-2,8.781181648E-3
2.516028875E1,3.970621154E-3,-2.519817324E-3,1.481347065E-2
2.520838718E1,2.214384731E-3,1.435532235E-2,2.176205814E-2
2.525648562E1,1.061377581E-2,-1.091920771E-2,1.756236330E-2
2.530458406E1,1.557705179E-2,4.237874225E-2,1.145371422E-2
2.535268250E1,-2.435823344E-2,-3.894262947E-3,4.276053514E-3
2.540078093E1,-2.596175298E-3,3.436114267E-2,8.399390616E-3
2.544887948E1,9.468403645E-3,7.330377586E-3,4.505127668E-3
2.549697791E1,1.198822167E-2,-2.901607659E-3,6.719512399E-3
2.554507635E1,6.948587019E-3,1.580612548E-2,1.450803829E-3
2.559317479E1,-1.603520103E-2,-1.023198478E-2,-1.366809942E-2
2.564127323E1,7.177661173E-3,-9.162971983E-4,-1.824958436E-2
2.568937166E1,1.198822167E-2,-1.046105940E-2,-1.000291109E-2
2.573747010E1,-1.603520103E-2,-1.076649129E-2,-8.170315996E-3
2.578556864E1,-1.259908639E-2,-1.504254527E-2,8.857538924E-3
2.583366708E1,1.779143699E-2,1.038470119E-2,3.665188793E-3
2.588176552E1,1.351538301E-2,6.872228696E-4,1.718057133E-2
2.592986395E1,-2.825249685E-3,-1.221729559E-3,6.948587019E-3
2.597796239E1,-1.649334840E-2,7.559451740E-3,2.825249685E-3
2.602606083E1,-1.328630932E-2,-1.687514037E-2,-3.817904799E-4
2.607415927E1,3.130681813E-2,4.734201822E-3,-8.399390499E-4
2.612225770E1,-4.169152305E-2,2.901607752E-2,9.162971983E-4
2.617035614E1,-2.290742844E-2,2.825249685E-3,1.488982886E-2
2.621845468E1,1.733328775E-2,1.458439697E-2,1.320995111E-2
2.626655312E1,1.259908639E-2,-2.542724647E-2,-1.168278884E-2
2.631465156E1,-4.734201822E-3,8.857538924E-3,-2.008217946E-2
2.636275000E1,-1.878409274E-2,-1.519526169E-2,-2.130390890E-2
2.641084843E1,-3.359756200E-3,2.244928107E-2,-1.091920771E-2
2.645894687E1,9.162971750E-3,-3.069595434E-2,8.933897130E-3
2.650704531E1,2.168569900E-2,1.183550525E-2,1.611155830E-2
2.655514375E1,2.199113183E-2,-2.031125315E-2,1.137735695E-2
2.660324218E1,-6.261364091E-3,8.093958721E-3,3.817904973E-3
2.665134062E1,-4.253146052E-2,1.970038936E-2,-4.810560029E-3
2.669943906E1,-5.154171586E-2,-1.374445762E-2,6.872228696E-4
2.674753750E1,2.466366626E-2,2.748891525E-2,2.451094985E-2
2.679563593E1,7.406735327E-3,-3.229947388E-2,1.802051067E-2
2.684373437E1,7.941242307E-3,2.779434808E-2,2.252563834E-2
2.689183281E1,2.748891478E-3,8.170315996E-3,3.817904799E-4
2.693993124E1,-8.399390616E-3,3.039052337E-2,-1.908952370E-2
2.698802979E1,9.315688163E-3,8.399390499E-4,-1.641699113E-2
2.703612823E1,7.712167688E-3,-2.672533505E-3,-1.649334840E-2
2.708422666E1,2.748891478E-3,-1.656970754E-2,-5.268708803E-3
2.713232510E1,1.336266659E-2,-1.565340906E-2,-6.719512399E-3
2.718042354E1,6.185005885E-3,1.259908639E-2,-1.030834299E-2
2.722852198E1,-1.114828233E-2,-2.519817324E-3,-6.643154658E-3
2.727662041E1,6.490438245E-3,1.710421406E-2,2.901607659E-3
2.732471885E1,-1.664606482E-2,-2.260199748E-2,-2.977965865E-3
2.737281729E1,-9.010255337E-3,4.276053514E-3,3.665188793E-3
2.742091572E1,2.855792828E-2,-1.412624773E-2,1.366809942E-2
2.746901406E1,3.084867075E-2,-8.628465235E-3,1.763872057E-2
2.751711250E1,2.542724647E-2,-1.542433538E-2,3.031416424E-2
2.756521093E1,8.399390499E-4,-2.023489587E-2,2.252563834E-2
2.761330937E1,-1.595884189E-2,2.703076601E-2,3.817904973E-3
2.766140781E1,-1.679878123E-2,1.985310577E-3,5.268708803E-3
2.770950624E1,-2.901607659E-3,-5.879573524E-3,-1.007926930E-2
2.775760468E1,1.114828233E-2,3.894262947E-3,-4.505127668E-3
2.780570312E1,2.443459118E-3,-2.115119249E-2,8.628465235E-3
2.785380156E1,3.665188793E-3,9.086613543E-3,-5.726857111E-3
2.790190000E1,-8.475748822E-3,1.007926930E-2,5.345066893E-4
2.794999843E1,-2.390008420E-2,-3.741546767E-3,-2.298378758E-2
2.799809687E1,1.328630932E-2,2.466366626E-2,-6.185005885E-3
2.804619531E1,-1.916588284E-2,-3.817904973E-3,-7.024944760E-3
2.809429374E1,-2.054032870E-2,7.635809598E-4,1.015562657E-2
2.814239208E1,-7.024944760E-3,-1.160643063E-2,-1.046105940E-2
2.819049052E1,4.604393244E-2,4.199695308E-3,5.879573524E-3
2.823858895E1,0.000000000E0,-9.315688163E-3,1.374445739E-3
2.828668739E1,-1.664606482E-2,2.420551702E-2,-0.000000000E0
2.833478583E1,2.970330045E-2,-4.886918236E-3,1.458439697E-2
2.838288427E1,9.315688163E-3,1.718057133E-2,7.406735327E-3
2.843098270E1,8.628465235E-3,-1.878409274E-2,-1.145371469E-3
2.847908114E1,-2.672533505E-3,2.405280061E-2,-7.024944760E-3
2.852717948E1,-1.672242396E-2,-9.162971983E-4,-1.336266659E-2
2.857527791E1,-2.229656465E-2,2.160934173E-2,-8.399390616E-3
2.862337635E1,-5.803215317E-3,-1.191186346E-2,-5.115992390E-3
2.867147479E1,-9.621120058E-3,9.086613543E-3,-8.857538924E-3
2.871957322E1,1.733328775E-2,-7.712167688E-3,-4.886918236E-3
2.876767166E1,1.427896414E-2,-2.061668551E-3,-1.603520010E-3
2.881577000E1,-1.901316643E-2,8.781181648E-3,-9.621120058E-3
2.886386843E1,-9.162971750E-3,1.229365356E-2,-6.032289471E-3
2.891196687E1,-3.665188793E-3,-1.580612548E-2,6.872228696E-4
2.896006531E1,8.399390616E-3,5.039634649E-3,-2.290742996E-4
2.900816374E1,-7.712167688E-3,-7.712167688E-3,-1.206457894E-2
2.905626208E1,-2.809977904E-2,-7.864884101E-3,-2.771798894E-2
2.910436052E1,1.114828233E-2,3.573558852E-2,-1.374445762E-2
2.915245895E1,-2.878700197E-2,-9.621120058E-3,-1.091920771E-2
2.920055739E1,3.665188793E-3,1.794415340E-2,1.259908639E-2
2.924865583E1,-3.199404106E-2,-1.672242396E-2,-7.864884101E-3
2.929675416E1,6.719512399E-3,8.017600514E-3,7.635809743E-5
2.934485260E1,1.351538301E-2,-9.926552884E-4,-1.832594397E-3
2.939295104E1,-2.840521187E-2,6.185005885E-3,-7.712167688E-3
2.944104948E1,9.926552884E-3,-2.672533505E-3,-5.345067009E-3
2.948914781E1,5.039634649E-3,-2.626718581E-2,-9.392046370E-3
2.953724625E1,4.199695308E-3,-1.718057133E-2,-3.008509055E-2
2.958534468E1,2.596175298E-3,-6.795870606E-3,-2.794706449E-2
2.963344302E1,-1.488982886E-2,8.170315996E-3,-1.290451828E-2
2.968154145E1,1.229365356E-2,9.926552884E-4,1.802051067E-2
2.972963989E1,2.596175298E-3,-6.414080039E-3,2.260199748E-2
2.977773833E1,-5.574141163E-3,-7.406735327E-3,1.534797717E-2
2.982583666E1,1.832594397E-3,-1.313359290E-2,2.901607659E-3
2.987393510E1,-2.214384731E-3,1.832594397E-3,-7.406735327E-3
2.992203354E1,-1.481347065E-2,1.817322709E-2,-1.267544460E-2
2.997013187E1,-2.535088919E-2,2.298378758E-2,1.527161949E-4
3.001823031E1,-2.160934173E-2,1.160643063E-2,6.872228812E-3
3.006632875E1,3.359756246E-2,-8.246674202E-3,5.345066893E-4
3.011442708E1,2.069304511E-2,3.054323839E-3,-1.366809942E-2
3.016252552E1,-3.382663801E-2,4.123337101E-3,-1.687514037E-2
3.021062395E1,-3.031416424E-2,3.665188793E-3,-2.664897591E-2
3.025872229E1,-1.183550525E-2,4.169152305E-2,-7.177661173E-3
3.030682072E1,-2.160934173E-2,1.527161920E-3,-8.323032409E-3
3.035491916E1,1.756236330E-2,6.490438245E-3,7.712167688E-3
3.040301750E1,5.421424750E-3,-2.649625950E-2,-7.635809743E-5
3.045111593E1,6.566796452E-3,-1.679878123E-2,4.963276442E-3
3.049921427E1,-9.926552884E-4,1.855501719E-2,6.185005885E-3
3.054731270E1,-2.397644334E-2,1.702785492E-2,-2.061668551E-3
3.059541114E1,2.764163166E-2,8.628465235E-3,1.168278884E-2
3.064350948E1,1.221729536E-2,3.970621154E-3,1.603520103E-2
3.069160791E1,-9.239329956E-3,-2.321286127E-2,2.901607752E-2
3.073970635E1,-8.399390616E-3,7.406735327E-3,3.436114406E-3
3.078780468E1,-1.069013379E-3,5.497782957E-3,-1.107192412E-2
3.083590312E1,-9.926552884E-3,1.733328775E-2,-1.366809942E-2
3.088400145E1,1.061377581E-2,-5.879573524E-3,2.138026757E-3
3.093209989E1,4.352411721E-3,6.261364091E-3,1.038470119E-2
3.098019823E1,1.007926930E-2,-8.628465235E-3,1.565340906E-2
3.102829666E1,6.261364091E-3,5.574141163E-3,1.603520103E-2
3.107639500E1,-2.748891478E-3,-2.390008420E-2,-0.000000000E0
3.112449343E1,3.054323897E-4,2.351829410E-2,-1.427896414E-2
3.117259177E1,-1.702785492E-2,-3.604102135E-2,-8.170315996E-3
3.122069020E1,1.107192412E-2,-7.101302966E-3,-5.421424750E-3
3.126878864E1,1.603520103E-2,-1.221729536E-2,1.114828233E-2
3.131688698E1,-5.161807314E-2,-8.246674202E-3,-1.550069358E-2
3.136498541E1,1.122464053E-2,2.069304511E-2,4.963276442E-3
3.141308374E1,1.221729559E-3,-2.061668551E-3,9.697478265E-3
3.146118218E1,4.657844082E-3,-1.618791744E-2,9.544761851E-3
3.150928052E1,2.244928107E-2,-1.030834299E-2,-8.017600514E-3
3.155737895E1,1.527161949E-4,-6.948587019E-3,-2.535088919E-2
3.160547729E1,-3.054323897E-4,-2.580903657E-2,-1.863137633E-2
3.165357573E1,-1.878409274E-2,2.481638081E-2,-1.000291109E-2
3.170167406E1,-1.290451828E-2,-1.496618707E-2,2.290742996E-4
3.174977239E1,-1.091920771E-2,2.328922041E-2,1.168278884E-2
3.179787083E1,1.527161920E-3,-3.115410358E-2,1.771507785E-2
3.184596916E1,-8.933897130E-3,2.107483521E-2,6.108647794E-4
3.189406760E1,3.054323897E-4,-2.703076601E-2,-1.244636998E-2
3.194216593E1,8.933897130E-3,5.192350596E-3,-1.550069358E-2
3.199026437E1,1.450803829E-3,-1.389717404E-2,-9.773836471E-3
3.203836270E1,4.046979360E-3,-3.665188793E-3,-8.093958721E-3
3.208646114E1,3.130682046E-3,-6.108647794E-4,-3.054323839E-3
3.213455948E1,2.748891478E-3,-8.781181648E-3,-4.276053514E-3
3.218265791E1,-5.345067009E-3,-1.221729559E-3,-1.343902480E-2
3.223075624E1,2.412915789E-2,-2.214384731E-3,-2.351829410E-2
3.227885458E1,2.390008420E-2,-1.878409274E-2,-1.175914705E-2
3.232695302E1,6.795870606E-3,-7.788525894E-3,-4.734201822E-3
3.237505135E1,1.504254527E-2,-6.795870606E-3,-1.756236190E-3
3.242314979E1,-2.848157100E-2,2.901607659E-3,-1.069013402E-2
3.247124812E1,-3.436114406E-3,-9.926552884E-4,-5.345067009E-3
3.251934656E1,3.970621154E-3,2.061668597E-2,-0.000000000E0
3.256744489E1,-2.496909723E-2,-1.206457894E-2,3.436114406E-3
3.261554322E1,-2.619082667E-2,-4.352411721E-3,1.069013379E-3
3.266364166E1,1.542433538E-2,-6.872228696E-4,6.948587019E-3
3.271175395E1,1.924224012E-2,-9.239329956E-3,1.695149764E-2
3.275983843E1,-1.443168055E-2,2.718348242E-2,2.160934173E-2
3.280793677E1,-2.138026757E-3,-1.153007243E-2,1.611155830E-2
3.285603510E1,2.527453005E-2,2.741255611E-2,5.421424750E-3
3.290413354E1,8.857538924E-3,-2.115119249E-2,-1.740964688E-2
3.295223187E1,2.947422490E-2,3.145953640E-2,-1.878409274E-2
3.300033020E1,-1.069013402E-2,-1.046105940E-2,-6.948587019E-3
3.304842864E1,-1.343902480E-2,1.954767294E-2,2.138026757E-3
3.309652698E1,-1.519526169E-2,5.803215317E-3,-3.894262947E-3
3.314462541E1,1.122464053E-2,4.352411721E-3,-6.948587019E-3
3.319272374E1,1.267544460E-2,3.588830587E-3,-1.618791744E-2
3.324082208E1,0.000000000E0,7.712167688E-3,-4.886918236E-3
3.328892052E1,-7.483093534E-3,1.565340906E-2,-0.000000000E0
3.333701885E1,2.748891478E-3,-4.734201822E-3,-6.261364091E-3
3.338511718E1,2.725984156E-2,-9.926552884E-4,-6.185005885E-3
3.343321562E1,6.108647794E-4,-1.305723470E-2,1.832594397E-3
3.348131395E1,1.099556591E-2,-5.574141163E-3,6.185005885E-3
3.352941229E1,-2.328922041E-2,-3.665188793E-3,-6.185005885E-3
3.357751072E1,2.863428742E-2,1.779143699E-2,9.697478265E-3
3.362560906E1,1.038470119E-2,3.894262947E-3,4.886918236E-3
3.367370739E1,6.872228696E-4,-5.345066893E-4,2.542724647E-2
3.372180583E1,-1.267544460E-2,-2.054032870E-2,-2.290742937E-3
3.376990416E1,1.527161989E-2,2.008217946E-2,-8.399390616E-3
3.381800250E1,-1.595884189E-2,-6.795870606E-3,-1.901316643E-2
3.386610093E1,-1.076649129E-2,2.076940238E-2,-1.007926930E-2
3.391419927E1,-2.160934173E-2,1.527161949E-4,-1.168278884E-2
3.396229760E1,-6.108647794E-4,-5.497782957E-3,-7.635809743E-5
3.401039604E1,1.656970754E-2,-9.392046370E-3,-4.505127668E-3
3.405849437E1,2.115119249E-2,-5.650499370E-3,-2.138026757E-3
3.410659270E1,-2.092211880E-2,1.221729559E-3,4.657844082E-3
3.415469114E1,-1.786779426E-2,-1.901316643E-2,1.198822167E-2
3.420278948E1,5.421424750E-3,-1.374445739E-3,4.352411721E-3
3.425088781E1,7.254019380E-3,-2.443459071E-2,2.977965865E-3
3.429898614E1,2.199113183E-2,-1.107192412E-2,1.137735695E-2
3.434708458E1,-7.024944760E-3,4.046979360E-3,1.275180187E-2
3.439518291E1,-3.894262947E-3,7.559451740E-3,1.351538301E-2
3.444328124E1,-2.115119249E-2,-7.635809598E-4,8.323032409E-3
3.449137968E1,-1.206457894E-2,-6.566796452E-3,6.185005885E-3
3.453947802E1,-3.207040019E-3,1.450803829E-3,-1.756236190E-3
3.458757635E1,-3.665188793E-3,-9.315688163E-3,1.832594397E-3
3.463567468E1,-2.649625950E-2,3.817904799E-4,-8.170315996E-3
3.468377312E1,-2.214384731E-3,-3.130682046E-3,-3.588830587E-3
3.473187145E1,-7.024944760E-3,2.672533505E-3,4.963276442E-3
3.477996979E1,-7.177661173E-3,-2.848157100E-2,3.436114406E-3
3.482806812E1,-8.399390499E-4,-3.130682046E-3,-6.108647678E-3
3.487616656E1,1.710421406E-2,-1.939495653E-2,-1.977674663E-2
3.492426489E1,-4.963276442E-3,-2.290742996E-4,-6.261364091E-3
3.497236322E1,-1.763872057E-2,7.635809947E-3,5.803215317E-3
3.502046156E1,-2.924515121E-2,5.726857111E-3,1.603520010E-3
3.506856000E1,1.893680729E-2,4.734201822E-3,8.857538924E-3
3.511665833E1,2.290742937E-3,-2.939786762E-2,-2.901607659E-3
3.516475666E1,1.855501719E-2,-3.741546767E-3,-8.552107029E-3
3.521285500E1,5.497782957E-3,6.795870606E-3,-1.832594397E-3
3.526095343E1,-9.773836471E-3,-1.015562657E-2,1.221729536E-2
3.530905177E1,-1.649334840E-2,1.840230078E-2,1.962403022E-2
3.535715010E1,-2.932151034E-2,-1.473711245E-2,1.229365356E-2
3.540524843E1,3.665188793E-3,-3.817904799E-4,6.185005885E-3
3.545334677E1,2.977965865E-3,-5.879573524E-3,-3.130682046E-3
3.550144520E1,1.214093715E-2,-5.803215317E-3,-2.977965865E-3
3.554954354E1,7.941242307E-3,-4.352411721E-3,2.290742996E-4
3.559764187E1,-5.803215317E-3,-7.941242307E-3,5.039634649E-3
3.564574020E1,-5.497782957E-3,1.328630932E-2,1.397353224E-2
3.569383854E1,-2.695440874E-2,-1.107192412E-2,5.879573524E-3
3.574193698E1,-2.649625950E-2,1.542433538E-2,4.276053514E-3
3.579003531E1,3.054323897E-4,-1.985310577E-2,-3.077231348E-2
3.583813364E1,2.199113183E-2,-7.635809743E-5,-2.367100911E-3
3.588623198E1,-1.221729559E-3,-2.993237413E-2,1.046105940E-2
3.593433031E1,2.764163166E-2,8.552107029E-3,3.749182448E-2
3.598242864E1,-3.680460155E-2,-1.046105940E-2,8.857538924E-3
3.603052708E1,-1.168278884E-2,1.382081583E-2,9.010255337E-3
3.607862541E1,-1.450803876E-2,2.290742996E-4,-9.315688163E-3
3.612672374E1,-1.687514037E-2,2.710712515E-2,-3.512472380E-3
3.617482208E1,-4.505127668E-3,-1.488982886E-2,6.414080039E-3
3.622292041E1,2.748891525E-2,6.414080039E-3,1.947131567E-2
3.627101874E1,-3.909534588E-2,-4.963276442E-3,-4.199695308E-3
3.631911708E1,-6.719512399E-3,-5.955931731E-3,-2.710712515E-2
3.636721552E1,-7.101302966E-3,2.038761228E-2,-2.916879393E-2
3.641531385E1,-1.099556591E-2,-2.641990222E-2,-2.076940238E-2
3.646341218E1,1.030834299E-2,1.397353224E-2,1.000291109E-2
3.651151052E1,5.497782957E-3,-2.535088919E-2,1.977674663E-2
3.655960885E1,2.474002354E-2,1.641699113E-2,-5.879573524E-3
3.660770718E1,-7.582359016E-2,-1.366809942E-2,-1.275180187E-2
3.665580552E1,-5.955931544E-2,8.246674202E-3,-5.421424750E-3
3.670390395E1,1.832594397E-3,-3.436114406E-3,1.038470119E-2
3.675200229E1,1.916588284E-2,-3.619373962E-2,1.664606482E-2
3.680010062E1,4.375318810E-2,4.199695308E-3,1.534797717E-2
3.684819895E1,4.321868345E-2,-2.512181364E-2,2.076940238E-2
3.689629729E1,-5.123628303E-2,2.878700197E-2,3.512472380E-3
3.694439562E1,-5.978839099E-2,9.697478265E-3,2.519817324E-3
3.699249406E1,3.130682046E-3,-8.552107029E-3,1.259908639E-2
3.704059239E1,2.588539571E-2,-1.840230078E-2,1.153007243E-2
3.708869072E1,8.246674202E-3,-7.712167688E-3,1.901316643E-2
3.713678906E1,8.552107029E-3,-3.031416424E-2,2.290742996E-4
3.718488739E1,3.054323979E-2,-1.404988952E-2,-3.817904973E-3
3.723298572E1,-3.634645417E-2,-5.345067009E-3,-3.336848691E-2
3.728108416E1,-2.160934173E-2,-3.054323897E-4,-3.168861195E-2
3.732918250E1,-2.153298259E-2,-3.199404106E-2,-2.962694131E-2
3.737728083E1,9.010255337E-3,-4.291325063E-2,-2.183841541E-2
3.742537916E1,4.123337101E-3,-2.619082667E-2,-3.459021822E-2
3.747347760E1,7.330377586E-3,-3.451386094E-2,-2.649625950E-2
3.752157593E1,6.719512399E-3,-1.496618707E-2,-2.092211880E-2
3.756967427E1,-9.162971750E-3,8.399390499E-4,-1.076649129E-2
3.761777260E1,-3.588830587E-3,-2.619082667E-2,-1.580612548E-2
3.766587093E1,3.092502989E-2,3.665188793E-3,-1.145371469E-3
3.771396937E1,2.061668597E-2,5.879573524E-3,8.552107029E-3
3.776206770E1,-4.940368980E-2,9.697478265E-3,2.443459071E-2
3.781016604E1,-2.672533318E-2,-6.566796452E-3,2.130390890E-2
3.785826448E1,2.412915789E-2,7.024944760E-3,-2.214384731E-3
3.790636281E1,-7.635809598E-4,3.741546767E-3,-1.175914705E-2
3.795446114E1,3.359756200E-3,9.162971750E-3,-3.741546767E-3
3.800255958E1,-2.481638081E-2,1.099556591E-2,3.130682046E-3
3.805065791E1,6.108647678E-3,3.298669681E-2,1.374445762E-2
3.809875625E1,-1.924224012E-2,1.519526169E-2,8.933897130E-3
3.814685468E1,1.007926930E-2,2.153298259E-2,8.933897130E-3
3.819495302E1,-5.115992390E-3,5.192350596E-3,1.359174121E-2
3.824305135E1,1.389717404E-2,-1.618791744E-2,1.511890348E-2
3.829114979E1,1.603520103E-2,-3.894262947E-3,9.544761851E-3
3.833924812E1,-1.527161949E-4,8.246674202E-3,7.635809947E-3
3.838734645E1,1.832594397E-3,6.337722298E-3,7.101302966E-3
3.843544489E1,1.252272818E-2,-2.367100911E-3,1.153007243E-2
3.848354323E1,3.359756200E-3,-1.404988952E-2,5.192350596E-3
3.853164166E1,8.093958721E-3,-1.015562657E-2,-2.672533505E-3
3.857974000E1,-9.162971983E-4,-1.107192412E-2,-8.781181648E-3
3.862783833E1,1.275180187E-2,-8.552107029E-3,-7.864884101E-3
3.867593677E1,2.748891478E-3,9.162971983E-4,1.069013379E-3
3.872403510E1,-4.886918236E-3,-1.343902480E-2,1.420260593E-2
3.877213354E1,2.664897591E-2,1.985310577E-3,1.435532235E-2
3.882023187E1,3.054323839E-3,-1.290451828E-2,-1.221729559E-3
3.886833031E1,1.107192412E-2,-7.635809743E-5,-7.254019380E-3
3.891642864E1,2.977965865E-3,-9.392046370E-3,-7.864884101E-3
3.896452708E1,-4.199695308E-3,-4.046979360E-3,6.490438245E-3
3.901262541E1,-3.420842811E-2,1.458439697E-2,4.505127668E-3
3.906072385E1,-3.451386094E-2,-9.544761851E-3,1.389717404E-2
3.910882218E1,-2.779434808E-2,1.030834299E-2,6.032289471E-3
3.915692062E1,8.857538924E-3,1.443168055E-2,1.748600416E-2
3.920501906E1,-2.222020552E-2,5.726857111E-3,2.176205814E-2
3.925311739E1,9.162971983E-4,2.138026757E-3,2.947422490E-2
3.930121583E1,-4.069886729E-2,1.007926930E-2,-3.894262947E-3
3.934931416E1,-2.443459118E-3,2.145662531E-2,-5.115992390E-3
3.939741260E1,8.093958721E-3,1.191186346E-2,4.963276442E-3
3.944551104E1,-4.039343446E-2,1.634063199E-2,3.283398226E-3
3.949360937E1,5.345066893E-4,1.007926930E-2,2.008217946E-2
3.954170781E1,2.054032870E-2,-9.697478265E-3,1.458439697E-2
3.958980625E1,-9.315688163E-3,-1.198822167E-2,-1.328630932E-2
3.963790458E1,1.160643063E-2,-5.421424750E-3,-2.657261863E-2
3.968600302E1,4.428769462E-3,-1.504254527E-2,-1.901316643E-2
3.973410145E1,-9.621120058E-3,-8.552107029E-3,-1.137735695E-2
3.978219989E1,-3.588830587E-3,1.145371469E-3,2.214384731E-3
3.983029833E1,6.490438245E-3,5.345067009E-3,5.574141163E-3
3.987839677E1,-3.436114406E-3,-1.588248461E-2,-1.603520010E-3
3.992649520E1,-5.803215317E-3,-2.672533505E-3,-1.168278884E-2
3.997459364E1,2.825249685E-3,-1.527161949E-4,-1.947131567E-2
4.002269208E1,-8.246674202E-3,-3.794997558E-2,-1.634063199E-2
4.007079052E1,-1.527161949E-4,3.588830587E-3,-4.886918236E-3
4.011888895E1,-7.788525894E-3,-9.162971750E-3,5.268708803E-3
4.016698750E1,-2.092211880E-2,-3.130682046E-3,-1.832594397E-3
4.021508593E1,4.161516204E-2,1.389717404E-2,2.977965865E-3
4.026318448E1,1.817322709E-2,-1.237001177E-2,-1.832594397E-3
4.031128291E1,4.581485875E-3,-9.239329956E-3,1.091920771E-2
4.035938145E1,8.704823442E-3,-1.824958436E-2,-2.290742996E-4
4.040748000E1,1.099556591E-2,7.635809743E-5,-1.580612548E-2
4.045557843E1,4.886918236E-3,-1.908952487E-3,-1.534797717E-2
4.050367698E1,-2.779434808E-2,8.323032409E-3,-9.621120058E-3
4.055177562E1,-1.038470119E-2,1.366809942E-2,-1.252272818E-2
4.059987416E1,1.542433538E-2,-8.017600514E-3,-1.000291109E-2
4.064797270E1,3.512472659E-2,-2.328922041E-2,-6.108647794E-4
4.069607125E1,1.572976820E-2,-8.170315996E-3,-8.933897130E-3
4.074416989E1,-2.748891478E-3,-1.214093715E-2,-1.053741761E-2
4.079226854E1,2.680169232E-2,6.261364091E-3,1.145371469E-3
4.084036708E1,-1.733328775E-2,4.505127668E-3,7.406735327E-3
4.088846572E1,3.054323897E-4,-1.366809942E-2,5.115992390E-3
4.093656437E1,8.781181648E-3,1.679878100E-3,6.337722298E-3
4.098466302E1,-1.397353224E-2,-1.771507785E-2,-5.726857111E-3
4.103276177E1,-1.603520010E-3,-1.259908639E-2,-7.483093534E-3
4.108086041E1,-8.552107029E-3,5.879573524E-3,-1.336266659E-2
4.112895916E1,-1.305723470E-2,-1.649334840E-2,1.450803829E-3
4.117705781E1,1.153007243E-2,-4.581485875E-3,9.697478265E-3
4.122515656E1,-1.611155830E-2,2.160934173E-2,7.406735327E-3
4.127325531E1,-1.519526169E-2,-7.406735327E-3,-1.756236190E-3
4.132135406E1,-4.581485991E-4,2.779434808E-2,-8.399390499E-4
4.136945281E1,3.894262947E-3,-1.397353224E-2,2.519817324E-3
4.141755166E1,-4.940368980E-2,2.321286127E-2,-2.519817324E-3
4.146565041E1,-9.010255337E-3,-1.259908639E-2,1.069013379E-3
4.151374927E1,3.054323839E-3,2.374736778E-2,-2.901607659E-3
4.156184812E1,1.466075517E-2,-6.795870606E-3,1.649334840E-2
4.160994698E1,-2.275471389E-2,5.115992576E-2,1.603520103E-2
4.165804583E1,-1.282816008E-2,-2.825249685E-3,2.122755162E-2
4.170614468E1,-2.596175298E-3,3.901898861E-2,1.824958436E-2
4.175424354E1,-2.298378758E-2,-3.436114267E-2,1.908952487E-3
4.180234250E1,2.290742937E-3,2.344193682E-2,6.795870606E-3
4.185044145E1,-2.802342176E-2,-2.840521187E-2,-2.672533505E-3
4.189854031E1,-5.574141163E-3,2.061668551E-3,1.046105940E-2
4.194663927E1,2.855792828E-2,-2.138026804E-2,3.420842811E-2
4.199473823E1,-3.817904799E-4,-2.512181364E-2,4.046979174E-2
4.204283729E1,1.320995111E-2,2.771798894E-2,1.779143699E-2
4.209093624E1,-1.603520010E-3,1.427896414E-2,3.054323897E-4
4.213903520E1,1.046105940E-2,1.275180187E-2,1.695149764E-2
4.218713427E1,3.512472380E-3,2.901607659E-3,3.031416424E-2
4.223523333E1,-3.817904973E-3,6.108647794E-4,3.176496923E-2
4.228333239E1,2.687804960E-2,4.879282415E-2,1.458439697E-2
4.233143145E1,4.978547990E-2,3.489565104E-2,7.712167688E-3
4.237953052E1,7.788525894E-3,2.756527252E-2,-2.580903657E-2
4.242762958E1,3.344484791E-2,3.436114267E-2,-2.336557768E-2
4.247572864E1,1.580612548E-2,-1.015562657E-2,-1.404988952E-2
4.252382781E1,-6.108647794E-4,1.870773360E-2,-1.130099874E-2
4.257192698E1,-2.069304511E-2,-2.451094985E-2,-3.344484791E-2
4.262002604E1,4.108065739E-2,3.420842811E-2,-5.031998456E-2
4.266812520E1,1.588248461E-2,-2.290742844E-2,-5.421425030E-2
4.271622437E1,2.107483521E-2,-5.268708803E-3,-2.542724647E-2
4.276432354E1,6.872228696E-4,-4.329504073E-2,-1.305723470E-2
4.281242270E1,1.130099874E-2,5.345066893E-4,-3.054323979E-2
4.286052198E1,1.420260593E-2,-2.290742996E-4,-2.000582218E-2
4.290862114E1,2.435823344E-2,-8.246674202E-3,-2.031125315E-2
4.295672041E1,8.239039034E-2,-7.635809743E-5,2.664897591E-2
4.300481958E1,1.389717404E-2,9.926552884E-3,3.978256881E-2
4.305291885E1,1.626427472E-2,2.718348242E-2,4.138609022E-2
4.310101812E1,2.840521187E-2,2.160934173E-2,2.351829410E-2
4.314911739E1,4.069886729E-2,2.046396956E-2,7.788525894E-3
4.319721666E1,1.091920771E-2,2.947422490E-2,-1.267544460E-2
4.324531593E1,-2.985601686E-2,2.061668551E-3,-3.588830587E-3
4.329341520E1,-3.336848691E-2,-2.390008420E-2,3.817904973E-3
4.334151458E1,7.177661173E-3,-2.328922041E-2,1.206457894E-2
4.338961385E1,3.306305781E-2,-4.390590638E-2,2.008217946E-2
4.343771322E1,1.588248461E-2,-1.656970754E-2,1.572976820E-2
4.348581250E1,2.611446939E-2,-2.832885459E-2,2.115119249E-2
4.353391187E1,-2.748891478E-3,-1.229365356E-2,5.726857111E-3
4.358201125E1,7.635809947E-3,1.572976820E-2,1.259908639E-2
4.363011062E1,2.955058403E-2,6.872228812E-3,1.893680729E-2
4.367821000E1,-8.246674202E-3,1.977674663E-2,2.916879393E-2
4.372630937E1,-2.076940238E-2,-7.635809598E-4,1.229365356E-2
4.377440874E1,1.168278884E-2,-5.192350596E-3,-9.850194678E-3
4.382250822E1,2.687804960E-2,-5.299251899E-2,-3.558287397E-2
4.387060760E1,6.643154658E-3,-2.680169232E-2,-3.153589368E-2
4.391870698E1,-6.185005885E-3,-2.351829410E-2,-1.351538301E-2
4.396680645E1,-4.276053514E-3,-2.306014486E-2,3.741546767E-3
4.401490593E1,-2.328922041E-2,1.756236190E-3,5.497782957E-3
4.406300531E1,2.351829410E-2,3.283398226E-3,-1.252272818E-2
4.411110479E1,3.512472659E-2,1.450803829E-3,-1.076649129E-2
4.415920427E1,-8.857538924E-3,4.352411721E-3,2.214384731E-3
4.420730375E1,-1.557705179E-2,8.323032409E-3,1.229365356E-2
4.425540322E1,-1.114828233E-2,-2.290742996E-4,1.496618707E-2
4.430350270E1,-3.436114406E-3,3.970621154E-3,-1.214093715E-2
4.435160218E1,-2.260199748E-2,1.588248461E-2,-4.046979174E-2
4.439970166E1,-3.031416424E-2,2.138026757E-3,-4.321868345E-2
4.444780114E1,-3.451386094E-2,1.305723470E-2,-4.016435891E-2
4.449590062E1,3.588830587E-3,-1.840230078E-2,-1.611155830E-2
4.454400010E1,2.321286127E-2,-2.420551702E-2,3.665188793E-3
4.459209968E1,4.986183718E-2,-1.725693047E-2,1.130099874E-2
4.464019916E1,3.543015569E-2,3.520108387E-2,-1.069013379E-3
4.468829875E1,-6.948587019E-3,5.528326333E-2,-2.672533505E-3
4.473639822E1,-3.451386094E-2,3.474293277E-2,5.574141163E-3
4.478449770E1,-1.847865991E-2,2.367100911E-3,-2.550360374E-2
4.483259729E1,8.552107215E-2,1.893680729E-2,-2.863428742E-2
4.488069687E1,5.406153202E-2,-2.535088919E-2,-3.283398226E-3
4.492879635E1,-2.779434808E-2,4.352411721E-3,1.947131567E-2
4.497689593E1,-5.566505343E-2,1.168278884E-2,-3.894262947E-3
4.502499552E1,-0.000000000E0,-7.101302966E-3,-2.008217946E-2
4.507309500E1,4.413498193E-2,-3.978256881E-2,-1.550069358E-2
4.512119458E1,2.199113183E-2,-2.794706449E-2,3.741546767E-3
4.516929416E1,-2.275471389E-2,-2.054032870E-2,-6.337722298E-3
4.521739374E1,-1.733328775E-2,-5.955931731E-3,-1.679878123E-2
4.526549322E1,5.879573524E-3,-2.397644334E-2,-3.619373962E-2
4.531359281E1,-3.588830680E-2,6.719512399E-3,-5.093085021E-2
4.536169239E1,-2.542724647E-2,-3.726275265E-2,-4.321868345E-2
4.540979198E1,2.176205814E-2,-2.451094985E-2,-1.847865991E-2
4.545789156E1,-2.252563834E-2,-2.848157100E-2,-2.367100911E-3
4.550599114E1,-5.016727000E-2,3.016144782E-2,-2.237292193E-2
4.555409072E1,2.901607659E-3,3.688096255E-2,-1.794415340E-2
4.560219031E1,6.620246917E-2,-5.955931731E-3,-7.559451740E-3
4.565028989E1,7.750347257E-2,2.573267929E-2,8.323032409E-3
4.569838948E1,-2.214384731E-3,1.794415340E-2,2.458730713E-2
4.574648906E1,-5.711585656E-2,5.597048625E-2,1.718057133E-2
4.579458864E1,-1.504254527E-2,6.337722298E-3,2.924515121E-2
4.584268822E1,-1.450803829E-3,4.428769462E-3,1.527161989E-2
4.589078781E1,-5.803215317E-3,2.191477455E-2,1.198822167E-2
4.593888739E1,-3.909534588E-2,1.099556591E-2,-3.894262947E-3
4.598698698E1,-3.756818548E-2,-9.544761851E-3,-1.527161989E-2
4.603508666E1,-1.366809942E-2,-4.688387364E-2,-3.039052337E-2
4.608318624E1,5.108356848E-2,-4.886918142E-2,-2.031125315E-2
4.613128583E1,4.398226365E-2,-4.039343446E-2,1.053741761E-2
4.617938541E1,8.017600514E-3,-6.795870606E-3,1.626427472E-2
4.622748500E1,-2.290742937E-3,1.557705179E-2,9.621120058E-3
4.627558458E1,-2.947422490E-2,6.643154658E-3,-2.466366626E-2
4.632368416E1,3.321577236E-2,7.788525894E-3,-2.687804960E-2
4.637178385E1,1.069013379E-3,-2.008217946E-2,-2.306014486E-2
4.641988343E1,-2.871064469E-2,9.621120058E-3,-2.451094985E-2
4.646798302E1,1.183550525E-2,1.427896414E-2,-1.886045001E-2
4.651608260E1,1.779143699E-2,-3.436114406E-3,-2.313650399E-2
4.656418218E1,1.343902480E-2,1.061377581E-2,-3.031416424E-2
4.661228187E1,-3.634645417E-2,1.435532235E-2,-3.321577236E-2
4.666038145E1,1.374445762E-2,2.290742996E-4,-3.184132650E-2
4.670848104E1,2.222020552E-2,-9.850194678E-3,-3.733910993E-2
4.675658062E1,1.450803829E-3,1.886045001E-2,-3.749182448E-2
4.680468020E1,-3.840812296E-2,-3.397935256E-2,-2.458730713E-2
4.685277989E1,-2.718348242E-2,7.483093534E-3,-1.977674663E-2
4.690087948E1,2.046396956E-2,-1.924224012E-2,1.351538301E-2
4.694897906E1,-2.176205814E-2,4.298960790E-2,1.970038936E-2
4.699707864E1,6.108647794E-4,3.046688065E-2,3.229947388E-2
4.704517833E1,4.780016840E-2,1.015562657E-2,5.398517475E-2
4.709327791E1,2.229656465E-2,1.779143699E-2,6.307178736E-2
4.714137750E1,-2.848157100E-2,1.534797717E-2,3.527744114E-2
4.718947708E1,-4.245510325E-2,4.100430012E-2,1.817322709E-2
4.723757677E1,-2.496909723E-2,3.207040019E-3,3.817904799E-4
4.728567635E1,-1.007926930E-2,2.313650399E-2,1.069013379E-3
4.733377593E1,-2.901607659E-3,-2.970330045E-2,7.101302966E-3
4.738187552E1,1.099556591E-2,1.183550525E-2,4.886918236E-3
4.742997520E1,-1.832594350E-2,-4.886918236E-3,-8.475748822E-3
4.747807479E1,-6.261364091E-3,-6.566796452E-3,-1.466075517E-2
4.752617437E1,-3.665188700E-2,1.374445739E-3,-3.222311661E-2
4.757427406E1,3.848448023E-2,-2.542724647E-2,-1.519526169E-2
4.762237364E1,1.740964688E-2,-7.406735327E-3,6.490438245E-3
4.767047322E1,-3.413207084E-2,-7.635809743E-5,2.397644334E-2
4.771857291E1,-1.244636998E-2,1.970038936E-2,1.725693047E-2
4.776667250E1,-1.046105940E-2,-3.512472380E-3,1.252272818E-2
4.781477208E1,-1.580612548E-2,-2.015853859E-2,4.963276442E-3
4.786287166E1,-3.054323839E-3,-1.328630932E-2,2.748891478E-3
4.791097135E1,-4.329504073E-2,4.734201822E-3,4.963276442E-3
4.795907093E1,-4.161516204E-2,2.290742996E-4,8.628465235E-3
4.800717052E1,-1.962403022E-2,4.657844082E-3,-1.985310577E-3
4.805527020E1,9.926552884E-3,-1.664606482E-2,9.926552884E-4
4.810336979E1,5.597048625E-2,-2.863428742E-2,1.420260593E-2
4.815146937E1,4.230238497E-2,-6.330086291E-2,2.160934173E-2
4.819956906E1,1.160643063E-2,-1.351538301E-2,-8.781181648E-3
4.824766864E1,5.650499370E-3,2.214384731E-3,-2.970330045E-2
4.829576822E1,5.803215317E-3,-4.581485875E-3,-2.412915789E-2
4.834386791E1,-2.825249685E-3,-2.634354308E-2,-6.566796452E-3
4.839196750E1,1.221729559E-3,-2.542724647E-2,-1.206457894E-2
4.844006708E1,1.527161989E-2,-2.962694131E-2,-1.794415340E-2
4.848816677E1,2.893971838E-2,1.603520103E-2,-3.451386094E-2
4.853626635E1,3.894263133E-2,1.023198478E-2,-3.077231348E-2
4.858436593E1,-6.414080039E-3,2.321286127E-2,-2.458730713E-2
4.863246562E1,-6.505709887E-2,2.290742937E-3,-2.229656465E-2
4.868056520E1,-2.504545636E-2,-3.833176568E-2,-1.840230078E-2
4.872866479E1,2.054032870E-2,-3.031416424E-2,-1.511890348E-2
4.877676448E1,3.726275265E-2,-6.872228696E-4,-3.581194952E-2
4.882486406E1,-3.970621154E-3,4.619665071E-2,-3.581194952E-2
4.887296364E1,-2.321286127E-2,-4.757109284E-2,-1.206457894E-2
4.892106333E1,2.649625950E-2,-1.565340906E-2,-1.702785492E-2
4.896916291E1,7.177661173E-3,1.786779426E-2,-2.008217946E-2
4.901726260E1,-3.207040206E-2,1.618791744E-2,5.879573524E-3
4.906536218E1,1.756236190E-3,-1.046105940E-2,2.863428742E-2
4.911346177E1,-3.375028074E-2,-4.528035223E-2,2.848157100E-2
4.916156145E1,-4.642572254E-2,-3.061959706E-2,-6.032289471E-3
4.920966104E1,2.504545636E-2,5.161807314E-2,-1.114828233E-2
4.925776062E1,-1.618791744E-2,-1.649334840E-2,-2.840521187E-2
4.930586031E1,2.046396956E-2,9.697478265E-3,-1.145371422E-2
4.935395989E1,9.468403645E-3,-1.130099874E-2,-1.015562657E-2
4.940205958E1,1.214093715E-2,-1.893680729E-2,-1.397353224E-2
4.945015916E1,6.872228696E-4,3.283398226E-2,-8.552107029E-3
4.949825874E1,-2.535088919E-2,2.664897591E-2,-1.550069358E-2
4.954635843E1,3.291033953E-2,4.505127668E-3,1.320995111E-2
4.959445802E1,3.207040206E-2,-4.886918236E-3,2.275471389E-2
4.964255770E1,-1.038470119E-2,1.107192412E-2,7.635809947E-3
4.969065729E1,2.412915789E-2,-2.229656465E-2,1.298087649E-3
4.973875687E1,1.817322709E-2,3.512472380E-3,7.712167688E-3
4.978685656E1,-1.939495653E-2,-1.107192412E-2,1.527161989E-2
4.983495614E1,-2.863428742E-2,-1.725693047E-2,4.634936526E-2
4.988305583E1,-2.573267929E-2,-1.389717404E-2,4.986183718E-2
4.993115541E1,3.543015569E-2,-7.101302966E-3,1.458439697E-2
4.997925500E1,4.764745384E-2,-6.872228812E-3,5.574141163E-3
5.002735468E1,1.382081583E-2,-1.320995111E-2,3.894262947E-3
5.007545427E1,-4.382954910E-2,-7.024944760E-3,1.198822167E-2
5.012355395E1,-4.673115537E-2,-1.145371422E-2,-1.733328775E-2
5.017165354E1,6.604975462E-2,-1.947131567E-2,-2.000582218E-2
5.021975323E1,2.779434808E-2,-3.054323979E-2,-1.802051067E-2
5.026785281E1,1.557705179E-2,9.162971750E-3,-2.290742937E-3
5.031595250E1,-3.817904799E-4,5.574141163E-3,1.290451828E-2
5.036405208E1,-2.603811212E-2,1.023198478E-2,-8.933897130E-3
5.041215166E1,2.130390890E-2,3.168861195E-2,-1.611155830E-2
5.046025135E1,1.298087649E-3,-2.359465137E-2,-4.886918236E-3
5.050835093E1,-2.832885459E-2,4.230238497E-2,-1.351538301E-2
5.055645062E1,7.330377586E-3,1.374445739E-3,-1.191186346E-2
5.060455020E1,1.038470119E-2,7.864884101E-3,1.504254527E-2
5.065264989E1,1.863137633E-2,-3.061959706E-2,2.535088919E-2
5.070074948E1,-2.015853859E-2,3.375028074E-2,-1.046105940E-2
5.074884916E1,-1.832594397E-3,7.559451740E-3,-2.718348242E-2
5.079694874E1,4.337139800E-2,1.000291109E-2,-2.886336111E-2
5.084504843E1,2.092211880E-2,2.672533505E-3,-2.542724647E-2
5.089314802E1,-8.552107029E-3,-1.069013379E-3,-2.519817324E-3
5.094124770E1,-4.130972922E-2,1.527161989E-2,3.359756200E-3
5.098934729E1,9.926552884E-4,-1.931859925E-2,7.254019380E-3
5.103744698E1,1.450803876E-2,1.458439697E-2,2.825249685E-3
5.108554666E1,3.436114406E-3,1.511890348E-2,8.933897130E-3
5.113364624E1,1.702785492E-2,2.061668597E-2,2.115119249E-2
5.118174593E1,1.382081583E-2,4.444041103E-2,3.252854943E-2
5.122984552E1,3.512472380E-3,1.130099874E-2,2.832885459E-2
5.127794520E1,3.115410358E-2,5.795579776E-2,1.847865991E-2
5.132604489E1,7.483093534E-3,1.015562657E-2,1.733328775E-2
5.137414448E1,-6.108647678E-3,1.511890348E-2,9.926552884E-3
5.142224416E1,1.275180187E-2,2.634354308E-2,2.023489587E-2
5.147034374E1,-1.649334840E-2,1.099556591E-2,1.382081583E-2
5.151844343E1,-3.268126398E-2,2.275471389E-2,1.626427472E-2
5.156654312E1,-1.053741761E-2,-1.061377581E-2,5.192350596E-3
5.161464270E1,2.382372692E-2,5.650499370E-3,2.214384731E-3
5.166274239E1,-1.023198478E-2,6.261364091E-3,-3.512472380E-3
5.171084208E1,-1.802051067E-2,3.000873141E-2,9.162971983E-4
5.175894166E1,-1.611155830E-2,3.207040206E-2,4.581485875E-3
5.180704135E1,1.069013379E-3,9.392046370E-3,1.015562657E-2
5.185514104E1,-9.773836471E-3,1.336266659E-2,5.726857111E-3
5.190324062E1,6.108647794E-4,-1.168278884E-2,7.559451740E-3
5.195134031E1,-5.345067009E-3,7.254019380E-3,4.046979360E-3
5.199944000E1,-5.268708803E-3,2.672533505E-3,9.926552884E-3
5.204753958E1,5.497782957E-3,1.870773360E-2,1.863137633E-2
5.209563927E1,-8.552107029E-3,-8.170315996E-3,1.557705179E-2
5.214373895E1,-2.367100911E-3,8.475748822E-3,2.214384731E-3
5.219183864E1,-2.748891478E-3,-1.870773360E-2,-8.170315996E-3
5.223993822E1,7.864884101E-3,1.756236190E-3,1.908952487E-3
5.228803791E1,-8.552107029E-3,8.399390499E-4,9.162971750E-3
5.233613760E1,-3.207040206E-2,6.948587019E-3,1.550069358E-2
5.238423729E1,-1.099556591E-2,1.275180187E-2,-4.886918236E-3
5.243233687E1,-3.970621154E-3,5.497782957E-3,-1.366809942E-2
5.248043656E1,-6.872228812E-3,-1.221729559E-3,-1.832594397E-3
5.252853625E1,-4.413498193E-2,1.725693047E-2,-1.687514037E-2
5.257663593E1,-1.534797717E-2,1.847865991E-2,-9.086613543E-3
5.262473552E1,9.773836471E-3,1.221729536E-2,-7.635809743E-5
5.267283520E1,8.857538924E-3,1.145371469E-3,1.779143699E-2
5.272093489E1,2.000582218E-2,2.061668551E-3,1.756236330E-2
5.276903458E1,1.511890348E-2,9.544761851E-3,4.352411721E-3
5.281713416E1,6.414080039E-3,-1.404988952E-2,1.298087649E-3
5.286523385E1,1.374445739E-3,4.810560029E-3,-4.581485991E-4
5.291333354E1,9.468403645E-3,-2.458730713E-2,-1.030834299E-2
5.296143322E1,2.741255611E-2,-5.268708803E-3,-2.214384731E-3
5.300953291E1,2.474002354E-2,-3.352120519E-2,-9.850194678E-3
5.305763250E1,2.779434808E-2,-5.268708803E-3,1.374445739E-3
5.310573218E1,-1.908952370E-2,-6.108647678E-3,6.490438245E-3
5.315383187E1,6.490438245E-3,1.023198478E-2,8.552107029E-3
5.320193156E1,-2.367100911E-3,2.222020552E-2,1.679878100E-3
5.325003124E1,-1.175914705E-2,1.259908639E-2,3.817904799E-4
5.329813093E1,-7.254019380E-3,1.702785492E-2,-4.581485991E-4
5.334623052E1,-2.550360374E-2,3.588830587E-3,-4.963276442E-3
5.339433020E1,-9.850194678E-3,1.336266659E-2,-5.039634649E-3
5.344242989E1,-2.748891478E-3,-8.857538924E-3,-3.054323897E-4
5.349052958E1,-1.007926930E-2,1.924224012E-2,3.588830587E-3
5.353862927E1,-2.550360374E-2,-7.101302966E-3,-5.650499370E-3
5.358672895E1,-1.275180187E-2,2.260199748E-2,-6.108647678E-3
5.363482864E1,8.399390499E-4,-2.168569900E-2,-1.611155830E-2
5.368292823E1,2.130390890E-2,1.970038936E-2,-1.122464053E-2
5.373102791E1,-2.535088919E-2,-8.933897130E-3,-2.290742996E-4
5.377912760E1,-2.458730713E-2,1.634063199E-2,1.320995111E-2
5.382722729E1,-8.857538924E-3,9.926552884E-4,1.015562657E-2
5.387532698E1,5.192350596E-3,1.870773360E-2,4.810560029E-3
5.392342666E1,8.017600514E-3,1.404988952E-2,9.926552884E-3
5.397152635E1,-1.534797717E-2,3.237583488E-2,1.786779426E-2
5.401962604E1,-1.527161920E-3,9.697478265E-3,2.748891525E-2
5.406772572E1,-1.366809942E-2,8.628465235E-3,2.481638081E-2
5.411582541E1,-4.734201822E-3,2.825249685E-3,1.229365356E-2
5.416392510E1,-1.985310577E-3,-4.963276442E-3,-4.581485991E-4
5.421202479E1,3.069595434E-2,-3.054323897E-4,-5.650499370E-3
5.426012448E1,1.656970754E-2,-4.046979360E-3,3.054323897E-4
5.430822416E1,1.771507785E-2,-3.588830587E-3,1.015562657E-2
5.435632385E1,-5.345066893E-4,1.878409274E-2,6.414080039E-3
5.440442354E1,-1.206457894E-2,4.199695308E-3,-1.756236190E-3
5.445252322E1,-5.497782957E-3,2.710712515E-2,2.367100911E-3
5.450062291E1,-1.954767294E-2,2.825249685E-3,3.817904799E-4
5.454872260E1,-4.276053514E-3,1.137735695E-2,6.795870606E-3
5.459682229E1,-1.527161989E-2,7.024944760E-3,-8.704823442E-3
5.464492198E1,7.712167688E-3,1.458439697E-2,6.872228696E-4
5.469302166E1,-5.115992390E-3,-1.076649129E-2,-1.069013402E-2
5.474112145E1,3.375028074E-2,2.993237413E-2,1.221729559E-3
5.478922114E1,-1.855501719E-2,-1.527161920E-3,3.054323897E-4
5.483732083E1,-1.053741761E-2,2.344193682E-2,1.481347065E-2
5.488542052E1,-2.764163166E-2,-3.817904799E-4,1.137735695E-2
5.493352020E1,-9.162971983E-4,4.657844082E-3,-3.588830587E-3
5.498162000E1,8.475748822E-3,-2.199113183E-2,-1.954767294E-2
5.502971968E1,-8.704823442E-3,-1.893680729E-2,-3.604102135E-2
5.507781937E1,4.810560029E-3,-2.313650399E-2,-2.825249545E-2
5.512591906E1,-1.374445739E-3,-5.917752534E-2,-1.389717404E-2
5.517401885E1,-2.260199748E-2,-2.588539571E-2,-1.618791744E-2
5.522211854E1,-3.161225095E-2,-3.794997558E-2,-4.726566374E-2
5.527021833E1,-8.399390499E-4,-1.427896414E-2,-5.230529606E-2
5.531831802E1,1.710421406E-2,-4.688387364E-2,-5.199986324E-2
5.536641770E1,5.291616172E-2,-1.985310577E-3,-3.604102135E-2
5.541451750E1,1.496618707E-2,-2.695440874E-2,-2.748891478E-3
5.546261718E1,4.925097153E-2,-2.664897591E-2,2.214384824E-2
5.551071698E1,5.910116807E-2,-4.146244749E-2,3.420842811E-2
5.555881666E1,8.216131479E-2,-6.123919412E-2,2.641990222E-2
5.560691645E1,3.680460155E-2,-8.781181648E-3,1.099556591E-2
5.565501614E1,-6.490438432E-2,2.405280061E-2,-2.397644334E-2
5.570311593E1,-5.100720748E-2,2.443459071E-2,-4.482220486E-2
5.575121562E1,-1.527161989E-2,-1.786779426E-2,-2.374736778E-2
5.579931541E1,-1.221729559E-3,-3.833176568E-2,-2.878700197E-2
5.584741510E1,4.207331315E-2,-6.108647678E-3,-7.559451740E-3
5.589551489E1,-3.283398226E-3,-2.794706449E-2,-1.183550525E-2
5.594361468E1,4.848739132E-2,-2.748891478E-3,-9.926552884E-3
5.599171437E1,4.596757516E-2,-3.779725730E-2,-1.878409274E-2
5.603981416E1,1.985310577E-2,-5.192350596E-3,-2.099847607E-2
5.608791395E1,1.985310577E-2,-1.786779426E-2,-2.367100911E-3
5.613601364E1,-2.153298259E-2,1.618791744E-2,1.084284950E-2
5.618411343E1,-1.282816008E-2,-8.933897130E-3,2.115119249E-2
5.623221322E1,2.458730713E-2,-3.894262947E-3,1.359174121E-2
5.628031302E1,1.740964688E-2,-1.924224012E-2,7.254019380E-3
5.632841270E1,1.832594397E-3,2.519817324E-3,1.718057133E-2
5.637651250E1,-2.076940238E-2,-3.894262947E-3,2.817613818E-2
5.642461229E1,-1.519526169E-2,1.527161989E-2,2.466366626E-2
5.647271208E1,-5.345067009E-3,2.145662531E-2,1.786779426E-2
5.652081187E1,-7.406735327E-3,5.192350596E-3,1.611155830E-2
5.656891166E1,1.191186346E-2,2.138026757E-3,1.076649129E-2
5.661701145E1,2.527453005E-2,3.436114406E-3,-4.046979360E-3
5.666511114E1,2.871064469E-2,-4.657844082E-3,-2.061668551E-3
5.671321093E1,4.276053514E-3,-1.794415340E-2,7.177661173E-3
5.676131072E1,-7.635809947E-3,7.330377586E-3,-1.443168055E-2
5.680941052E1,-7.483093534E-3,-8.628465235E-3,-2.680169232E-2
5.685751031E1,-1.847865991E-2,-2.733619884E-2,-3.688096255E-2
5.690561010E1,9.773836471E-3,1.244636998E-2,-2.489273995E-2
5.695370989E1,1.221729559E-3,1.153007243E-2,-5.345066893E-4
5.700180968E1,-5.474875495E-2,1.053741761E-2,2.672533318E-2
5.704990948E1,-9.697478265E-3,2.596175298E-2,4.298960790E-2
5.709800927E1,5.192350596E-3,-1.359174121E-2,2.809977904E-2
5.714610916E1,1.328630932E-2,-4.123337101E-3,1.488982886E-2
5.719420895E1,-4.031707719E-2,2.435823344E-2,-1.733328775E-2
5.724230874E1,1.931859925E-2,2.290742844E-2,-2.252563834E-2
5.729040854E1,3.917170316E-2,-1.656970754E-2,-5.421424750E-3
5.733850833E1,9.697478265E-3,-3.642281145E-2,1.748600416E-2
5.738660812E1,1.947131567E-2,-1.809686981E-2,2.054032870E-2
5.743470791E1,2.176205814E-2,-3.390299529E-2,3.825540841E-2
5.748280781E1,3.046688065E-2,-6.452259421E-2,4.589121789E-2
5.753090760E1,4.123337194E-2,-4.314232618E-2,4.802924395E-2
5.757900739E1,-8.246674389E-2,3.871355578E-2,-0.000000000E0
5.762710718E1,-6.856957078E-2,6.276635826E-2,-5.345066893E-4
5.767520708E1,-7.735075057E-2,5.215258151E-2,1.656970754E-2
5.772330687E1,-5.955931731E-3,9.010255337E-3,4.512763396E-2
5.777140666E1,2.878700197E-2,3.092502989E-2,3.543015569E-2
5.781950656E1,-8.857538924E-3,-2.290742937E-3,2.367100911E-3
5.786760635E1,7.864884101E-3,3.321577236E-2,3.817904973E-3
5.791570614E1,-4.772381112E-2,-2.412915789E-2,-2.054032870E-2
5.796380593E1,2.993237413E-2,6.566796452E-3,-9.392046370E-3
5.801190583E1,-1.832594397E-3,-2.298378758E-2,-5.039634649E-3
5.806000562E1,-1.237001177E-2,1.878409274E-2,3.741546767E-3
5.810812093E1,6.185005885E-3,8.628465235E-3,-7.635809743E-5
5.815620531E1,1.023198478E-2,4.046979174E-2,-2.344193682E-2
5.820430520E1,1.466075517E-2,1.366809942E-2,-2.580903657E-2
5.825240500E1,-4.352411721E-3,2.099847607E-2,-2.222020552E-2
5.830050479E1,1.237001177E-2,-6.795870606E-3,-1.527161949E-4
5.834860468E1,5.108356848E-2,-1.580612548E-2,7.941242307E-3
5.839670448E1,9.697478265E-3,3.924806044E-2,9.773836471E-3
5.844480437E1,-2.474002354E-2,2.000582218E-2,1.626427472E-2
5.849290416E1,-2.374736778E-2,4.650207981E-2,7.406735327E-3
5.854100406E1,-4.757109284E-2,2.237292193E-2,-1.343902480E-2
5.858910385E1,-3.397935256E-2,3.565923125E-2,-3.504836559E-2
5.863720374E1,-7.635809598E-4,1.237001177E-2,-3.558287397E-2
5.868530364E1,1.069013402E-2,-4.199695308E-3,-6.185005885E-3
5.873340343E1,1.076649129E-2,-4.352411628E-2,2.794706449E-2
5.878150333E1,6.566796452E-3,-4.612028971E-2,1.649334840E-2
5.882960312E1,4.337139800E-2,-4.650207981E-2,-9.086613543E-3
5.887770302E1,1.832594350E-2,-2.344193682E-2,-1.840230078E-2
5.892580281E1,-5.345067009E-3,-3.985892609E-2,-3.000873141E-2
5.897390270E1,6.032289471E-3,-1.259908639E-2,-2.802342176E-2
5.902200260E1,2.565632015E-2,-3.168861195E-2,-1.427896414E-2
5.907010239E1,1.832594350E-2,-1.298087649E-3,-8.399390499E-4
5.911820229E1,4.749473557E-2,-3.436114267E-2,1.802051067E-2
5.916630218E1,6.414080039E-3,-3.894262947E-3,2.687804960E-2
5.921440198E1,0.000000000E0,1.160643063E-2,1.145371469E-3
5.926250187E1,9.162971750E-3,6.528617442E-2,-9.086613543E-3
5.931060166E1,-1.771507785E-2,3.504836559E-2,-1.450803829E-3
5.935870156E1,-4.459312931E-2,3.962985426E-2,-1.504254527E-2
5.940680145E1,2.871064469E-2,1.870773360E-2,-1.145371469E-3
5.945490124E1,-1.122464053E-2,1.305723470E-2,1.718057133E-2
5.950300114E1,-1.527161989E-2,1.824958436E-2,3.413207084E-2
5.955110104E1,-2.351829410E-2,4.718930274E-2,3.077231348E-2
5.959920083E1,-1.550069358E-2,2.985601686E-2,3.917170316E-2
5.964730072E1,-1.473711245E-2,4.276053607E-2,2.176205814E-2
5.969540062E1,8.323032409E-3,1.336266659E-2,1.565340906E-2
5.974350041E1,8.475748822E-3,1.649334840E-2,1.603520103E-2
5.979160031E1,2.229656465E-2,-5.345067009E-3,2.031125315E-2
5.983970020E1,-3.970621154E-3,1.626427472E-2,2.970330045E-2
5.988780000E1,-3.054323979E-2,2.428187430E-2,1.786779426E-2
5.993589989E1,-5.421424750E-3,3.000873141E-2,8.475748822E-3
5.998399979E1,-1.527161989E-2,2.550360374E-2,-2.061668551E-3
6.003209963E1,-2.871064469E-2,3.466657549E-2,1.244636998E-2
6.008019953E1,-3.252854943E-2,2.557996288E-2,1.282816008E-2
6.012829937E1,-1.198822167E-2,4.085158184E-2,1.305723470E-2
6.017639921E1,-5.803215317E-3,2.970330045E-2,5.268708803E-3
6.022449911E1,-1.947131567E-2,-7.635809598E-4,2.863428742E-2
6.027259895E1,8.246674202E-3,1.320995111E-2,3.252854943E-2
6.032069880E1,-8.399390616E-3,1.298087649E-2,3.100138716E-2
6.036879869E1,-2.695440874E-2,1.030834299E-2,1.954767294E-2
6.041689859E1,5.879573524E-3,1.947131567E-2,1.229365356E-2
6.046499843E1,1.824958436E-2,-8.323032409E-3,-3.283398226E-3
6.051309828E1,9.926552884E-3,-1.504254527E-2,-8.170315996E-3
6.056119817E1,-5.879573524E-3,-2.970330045E-2,-1.420260593E-2
6.060929802E1,-2.275471389E-2,-3.260490671E-2,-2.802342176E-2
6.065739786E1,6.185005885E-3,-2.397644334E-2,-2.565632015E-2
6.070549776E1,7.330377586E-3,-2.451094985E-2,-5.421424750E-3
6.075359765E1,-1.343902480E-2,7.483093534E-3,1.397353224E-2
6.080169755E1,-2.695440874E-2,8.399390616E-3,2.267835476E-2
6.084979734E1,-2.367100911E-3,2.191477455E-2,1.000291109E-2
6.089789724E1,-1.458439697E-2,-1.603520010E-3,-2.061668551E-3
6.094599713E1,7.024944760E-3,1.130099874E-2,-2.290742996E-4
6.099409703E1,-1.634063199E-2,2.038761228E-2,-2.138026757E-3
6.104219682E1,-1.007926930E-2,9.773836471E-3,-7.254019380E-3
6.109029671E1,-1.145371422E-2,3.229947388E-2,-1.427896414E-2
6.113839661E1,-1.099556591E-2,2.977965865E-3,-3.031416424E-2
6.118649651E1,1.779143699E-2,2.313650399E-2,-2.015853859E-2
6.123459635E1,1.061377581E-2,-4.810560029E-3,3.817904799E-4
6.128269619E1,4.734201822E-3,1.450803829E-3,2.909243479E-2
6.133079609E1,-1.527161989E-2,-1.672242396E-2,2.481638081E-2
6.137889599E1,2.397644334E-2,-6.337722298E-3,1.015562657E-2
6.142699588E1,3.718639165E-2,-2.214384824E-2,-1.916588284E-2
6.147509567E1,4.382954910E-2,-4.581485875E-3,-2.504545636E-2
6.152319557E1,2.641990222E-2,-1.084284950E-2,-2.374736778E-2
6.157129546E1,2.000582218E-2,-5.955931731E-3,-1.290451828E-2
6.161939536E1,-4.123337101E-3,-1.366809942E-2,-4.657844082E-3
6.166749526E1,1.572976820E-2,6.872228812E-3,5.879573524E-3
6.171559510E1,-1.572976820E-2,6.414080039E-3,-4.505127668E-3
6.176369500E1,1.267544460E-2,6.795870606E-3,-6.719512399E-3
6.181179484E1,1.557705179E-2,-1.015562657E-2,-7.330377586E-3
6.185989474E1,9.621120058E-3,-6.032289471E-3,-9.239329956E-3
6.190799463E1,-2.390008420E-2,6.795870606E-3,-3.359756200E-3
6.195609453E1,-1.053741761E-2,-9.315688163E-3,-5.268708803E-3
6.200419442E1,1.221729559E-3,1.130099874E-2,1.298087649E-3
6.205229432E1,1.290451828E-2,-1.313359290E-2,6.185005885E-3
6.210039416E1,4.734201822E-3,1.137735695E-2,7.101302966E-3
6.214849406E1,-2.703076601E-2,7.406735327E-3,1.542433538E-2
6.219659390E1,-2.138026804E-2,2.099847607E-2,5.345067009E-3
6.224469380E1,1.343902480E-2,2.390008420E-2,6.108647794E-4
6.229279369E1,2.061668597E-2,2.328922041E-2,2.901607659E-3
6.234089359E1,9.086613543E-3,9.315688163E-3,1.382081583E-2
6.238899349E1,-5.726857111E-3,-6.872228812E-3,-3.359756200E-3
6.243709338E1,2.641990222E-2,1.107192412E-2,-2.153298259E-2
6.248519328E1,-1.214093715E-2,-1.450803829E-3,-3.451386094E-2
6.253329317E1,5.803215317E-3,2.313650399E-2,-2.176205814E-2
6.258139307E1,2.138026757E-3,1.832594350E-2,-6.032289471E-3
6.262949296E1,6.872228696E-4,9.315688163E-3,1.168278884E-2
6.267759286E1,1.359174121E-2,-9.162971983E-4,-3.512472380E-3
6.272569276E1,1.786779426E-2,1.221729536E-2,-3.138317913E-2
6.277379265E1,1.733328775E-2,-2.160934173E-2,-2.222020552E-2
6.282189255E1,-7.024944760E-3,-8.781181648E-3,-1.870773360E-2
6.286999244E1,1.542433538E-2,-2.489273995E-2,-1.626427472E-2
6.291809234E1,4.749473557E-2,-2.893971838E-2,-1.626427472E-2
6.296619224E1,4.069886729E-2,-5.108356848E-2,-7.330377586E-3
6.301429213E1,4.077522457E-2,-3.275762498E-2,-3.970621154E-3
6.306239203E1,-2.588539571E-2,-2.481638081E-2,-2.878700197E-2
6.311049192E1,-7.941242307E-3,6.490438245E-3,-5.093085021E-2
6.315859182E1,4.711294547E-2,-2.687804960E-2,-4.207331315E-2
6.320669171E1,6.330086291E-2,-2.649625950E-2,-2.015853859E-2
6.325479161E1,4.108065739E-2,-2.290742844E-2,-1.565340906E-2
6.330289151E1,7.177661173E-3,3.886627033E-2,-4.673115537E-2
6.335099140E1,1.611155830E-2,3.894263133E-2,-4.818195850E-2
6.339909130E1,-4.046979360E-3,1.175914705E-2,-2.496909723E-2
6.344719119E1,-5.390881747E-2,-1.939495653E-2,-1.145371422E-2
6.349529109E1,-1.221729536E-2,9.162971750E-3,-3.016144782E-2
6.354339104E1,2.328922041E-2,6.948587019E-3,-1.931859925E-2
6.359149093E1,5.803215317E-3,-2.099847607E-2,8.475748822E-3
6.363959083E1,1.542433538E-2,1.939495653E-2,3.527744114E-2
6.368769078E1,8.093958721E-3,-2.367100911E-3,4.130972922E-2
6.373579067E1,2.832885459E-2,7.177661173E-3,3.428478539E-2
6.378389057E1,3.894262947E-3,-1.397353224E-2,1.412624773E-2
6.383199046E1,-3.283398226E-2,3.283398226E-3,-1.893680729E-2
6.388009036E1,-4.382954910E-2,3.397935256E-2,-4.192059487E-2
6.392819026E1,-5.681042373E-2,1.450803829E-3,-4.130972922E-2
6.397629015E1,5.345067009E-3,-1.679878123E-2,-2.580903657E-2
6.402439005E1,-9.773836471E-3,-1.007926930E-2,-5.268708803E-3
6.407248994E1,-4.138609022E-2,2.298378758E-2,-4.276053514E-3
6.412058984E1,-1.099556591E-2,2.397644334E-2,9.926552884E-4
6.416868979E1,-2.512181364E-2,3.336848691E-2,8.857538924E-3
6.421678968E1,1.320995111E-2,1.122464053E-2,1.168278884E-2
6.426488963E1,3.031416424E-2,1.404988952E-2,1.695149764E-2
6.431298953E1,1.069013402E-2,2.374736778E-2,3.367391974E-2
6.436108942E1,-2.267835476E-2,2.061668597E-2,3.298669681E-2
6.440918932E1,8.093958721E-3,1.886045001E-2,1.504254527E-2
6.445728921E1,5.933023989E-2,-7.635809743E-5,7.635809947E-3
6.450538911E1,-1.450803829E-3,8.628465235E-3,-1.061377581E-2
6.455348901E1,-2.031125315E-2,2.527453005E-2,-3.619373962E-2
6.460158890E1,9.315688163E-3,5.268708803E-3,-3.474293277E-2
6.464968885E1,-2.244928107E-2,-1.985310577E-2,-4.894553870E-2
6.469778880E1,6.559160352E-2,6.108647678E-3,-2.344193682E-2
6.474588869E1,3.291033953E-2,-1.237001177E-2,-6.643154658E-3
6.479398859E1,1.786779426E-2,9.086613543E-3,2.420551702E-2
6.484208848E1,9.162971750E-3,1.557705179E-2,3.130681813E-2
6.489018843E1,-5.581776798E-2,-8.475748822E-3,-3.894262947E-3
6.493828838E1,-4.848739132E-2,4.902189970E-2,-4.963276163E-2
6.498638828E1,1.985310577E-3,-2.504545636E-2,-3.787361458E-2
6.503448817E1,-2.260199748E-2,-6.192641705E-2,7.177661173E-3
6.508258817E1,7.177661173E-3,-4.734201822E-3,8.842267841E-2
6.513068807E1,-4.214967042E-2,-1.847865991E-2,8.895718306E-2
6.517878796E1,1.626427472E-2,3.527744114E-2,6.391172856E-2
6.522688796E1,-1.779143699E-2,4.795288667E-2,-5.039634649E-3
6.527498786E1,-9.926552884E-3,3.520108387E-2,-3.901898861E-2
6.532308786E1,2.955058403E-2,-3.161225095E-2,-1.718057133E-2
6.537118776E1,2.481638081E-2,-2.573267929E-2,6.872228696E-4
6.541928770E1,4.734201822E-3,1.366809942E-2,-5.115992390E-3
6.546738765E1,2.794706449E-2,4.100430012E-2,1.237001177E-2
6.551548760E1,1.015562657E-2,-4.795288667E-2,3.359756246E-2
6.556358755E1,-2.779434808E-2,-7.712167688E-3,4.199695215E-2
6.561168755E1,-8.391755074E-2,2.390008420E-2,9.773836471E-3
6.565978744E1,-4.344775900E-2,3.772090003E-2,-1.435532235E-2
6.570788744E1,3.604102135E-2,-1.550069358E-2,-7.024944760E-3
6.575598744E1,4.864010960E-2,-2.222020552E-2,1.427896414E-2
6.580408734E1,2.947422490E-2,-1.336266659E-2,5.131264031E-2
6.585218734E1,-8.246674202E-3,-9.926552884E-4,5.238165334E-2
6.590028734E1,3.199404106E-2,-1.366809942E-2,3.069595434E-2
6.594838729E1,3.199404106E-2,-8.552107029E-3,8.933897130E-3
6.599648724E1,-7.429642975E-2,4.436405376E-2,-3.191768378E-2
6.604458724E1,-3.688096255E-2,-2.153298259E-2,-1.244636998E-2
6.609268724E1,-8.093958721E-3,3.672824427E-2,1.298087649E-3
6.614078724E1,1.611155830E-2,-2.138026804E-2,1.740964688E-2
6.618888713E1,6.039925665E-2,1.771507785E-2,2.069304511E-2
6.623698713E1,-5.497782957E-3,-1.061377581E-2,1.351538301E-2
6.628508713E1,-1.175914705E-2,-4.581485991E-4,6.490438245E-3
6.633318713E1,-1.020144150E-1,1.718057133E-2,-1.908952370E-2
6.638128713E1,-3.924806044E-2,4.169152305E-2,-2.832885459E-2
6.642938713E1,-1.970038936E-2,-1.878409274E-2,-9.773836471E-3
6.647748708E1,-2.367101051E-2,1.221729536E-2,-1.901316643E-2
6.652558703E1,3.955349326E-2,-3.565923125E-2,-1.114828233E-2
6.657368703E1,5.009091273E-2,-4.818195850E-2,-1.000291109E-2
6.662178703E1,2.420551702E-2,-5.192350596E-3,-1.488982886E-2
6.666988703E1,-8.857538924E-3,2.000582218E-2,-3.008509055E-2
6.671798703E1,2.313650399E-2,3.970621154E-3,-2.222020552E-2
6.676608703E1,3.008509055E-2,-4.505127668E-3,-3.588830587E-3
6.681418703E1,7.864884287E-2,-1.947131567E-2,1.336266659E-2
6.686228703E1,1.229365356E-2,2.916879393E-2,1.519526169E-2
6.691038692E1,-4.573849961E-2,2.626718581E-2,7.712167688E-3
6.695848692E1,-1.534797717E-2,4.665479809E-2,-4.963276442E-3
6.700658692E1,8.704823442E-3,4.352411721E-3,-4.046979174E-2
6.705468692E1,6.047561392E-2,7.635809743E-5,-2.832885459E-2
6.710278692E1,-1.970038936E-2,3.054323839E-3,-1.595884189E-2
6.715088692E1,-4.329504073E-2,3.039052337E-2,-1.855501719E-2
6.719898692E1,-3.588830587E-3,5.268708803E-3,-2.893971838E-2
6.724708682E1,1.237001177E-2,-1.542433538E-2,-3.390299529E-2
6.729518682E1,2.367100911E-3,-1.550069358E-2,-3.092502989E-2
6.734328682E1,-4.031707719E-2,3.489565104E-2,-2.955058403E-2
6.739138682E1,-4.016435891E-2,-2.474002354E-2,-1.221729536E-2
6.743948682E1,-1.832594397E-3,1.107192412E-2,3.436114406E-3
6.748758671E1,1.527161949E-4,3.436114406E-3,5.421424750E-3
6.753568671E1,-6.337722298E-3,1.542433538E-2,4.963276442E-3
6.758378671E1,8.781181648E-3,9.926552884E-3,2.977965865E-3
6.763188666E1,-2.458730713E-2,-7.254019380E-3,-1.084284950E-2
6.767998661E1,-4.886918236E-3,2.977965865E-3,-7.712167688E-3
6.772808661E1,-3.436114406E-3,-9.315688163E-3,-9.926552884E-3
6.777618661E1,1.450803829E-3,1.160643063E-2,7.712167688E-3
6.782428651E1,1.122464053E-2,2.160934173E-2,2.145662531E-2
6.787238651E1,2.031125315E-2,4.199695308E-3,3.291033953E-2
6.792048645E1,2.703076601E-2,8.704823442E-3,2.878700197E-2
6.796858640E1,-2.825249685E-3,1.939495653E-2,9.544761851E-3
6.801668640E1,-2.443459071E-2,1.809686981E-2,5.115992390E-3
6.806478630E1,-3.153589368E-2,9.392046370E-3,-1.458439697E-2
6.811288630E1,1.053741761E-2,2.283107117E-2,-2.481638081E-2
6.816098619E1,3.161225095E-2,-5.345066893E-4,7.864884101E-3
6.820908619E1,8.399390616E-3,-1.702785492E-2,2.748891525E-2
6.825718614E1,1.435532235E-2,-2.504545636E-2,2.756527252E-2
6.830528609E1,-2.336557768E-2,5.192350596E-3,-6.872228812E-3
6.835338604E1,-3.420842811E-2,2.451094985E-2,-3.397935256E-2
6.840148599E1,-3.207040019E-3,-9.926552884E-3,-3.947713599E-2
6.844958588E1,3.535379842E-2,-9.162971983E-4,-2.779434808E-2
6.849768588E1,3.069595434E-2,-1.886045001E-2,9.926552884E-3
6.854578578E1,4.657844082E-3,1.412624773E-2,1.214093715E-2
6.859388572E1,-3.512472380E-3,4.741837829E-2,1.824958436E-2
6.864198567E1,-3.917170316E-2,2.298378758E-2,4.657844082E-3
6.869008557E1,8.933897130E-3,6.643154658E-3,8.933897130E-3
6.873818552E1,-1.527161949E-4,-4.199695308E-3,8.933897130E-3
6.878628546E1,-6.566796452E-3,1.435532235E-2,1.931859925E-2
6.883438536E1,-6.490438245E-3,-6.948587019E-3,3.604102135E-2
6.888248526E1,1.679878100E-3,-2.267835476E-2,2.183841541E-2
6.893058520E1,-2.122755162E-2,2.000582218E-2,8.933897130E-3
6.897868515E1,-3.222311661E-2,-1.366809942E-2,-5.039634649E-3
6.902678505E1,4.581485991E-4,8.399390499E-4,-3.359756200E-3
6.907488494E1,-4.734201822E-3,-2.893971838E-2,-1.832594397E-3
6.912298484E1,2.298378758E-2,-2.061668597E-2,6.948587019E-3
6.917108474E1,-3.054323839E-3,-1.504254527E-2,1.473711245E-2
6.921918463E1,7.788525894E-3,-2.176205814E-2,5.039634649E-3
6.926728453E1,1.695149764E-2,1.733328775E-2,-8.781181648E-3
6.931538442E1,2.443459118E-3,-1.565340906E-2,-5.497782957E-3
6.936348432E1,-1.954767294E-2,2.825249685E-3,4.657844082E-3
6.941158421E1,-4.596757516E-2,6.872228696E-4,-8.170315996E-3
6.945968411E1,1.122464053E-2,-1.916588284E-2,-1.740964688E-2
6.950778401E1,1.779143699E-2,-4.963276442E-3,5.726857111E-3
6.955588390E1,-3.367391974E-2,-3.268126398E-2,1.901316643E-2
6.960398380E1,-2.206749097E-2,4.505127668E-2,5.192350596E-3
6.965208369E1,-6.108647678E-3,-1.580612548E-2,-1.580612548E-2
6.970018354E1,3.130681813E-2,1.359174121E-2,-2.649625950E-2
6.974828338E1,-1.069013402E-2,-7.559451740E-3,-1.878409274E-2
6.979638328E1,-3.481929377E-2,1.603520103E-2,6.108647794E-4
6.984448317E1,-2.527453005E-2,7.788525894E-3,-3.512472380E-3
6.989258302E1,1.282816008E-2,1.985310577E-3,-1.595884189E-2
6.994068286E1,2.092211880E-2,1.420260593E-2,-2.176205814E-2
6.998878276E1,-1.130099874E-2,-5.268708803E-3,-2.160934173E-2
7.003688260E1,5.345066893E-4,1.931859925E-2,-6.108647794E-4
7.008498244E1,-4.046979174E-2,2.901607659E-3,-5.192350596E-3
7.013308229E1,-7.635809947E-3,1.023198478E-2,1.298087649E-2
7.018118213E1,1.702785492E-2,-3.512472380E-3,1.565340906E-2
7.022928198E1,1.153007243E-2,-1.145371422E-2,9.850194678E-3
7.027738182E1,-2.008217946E-2,-8.552107029E-3,-1.298087649E-3
7.032548166E1,1.053741761E-2,5.345067009E-3,-1.206457894E-2
7.037358151E1,8.552107029E-3,4.810560029E-3,-9.468403645E-3
7.042168130E1,-8.933897130E-3,-1.756236330E-2,1.198822167E-2
7.046978114E1,-1.779143699E-2,-3.665188793E-3,2.977965865E-3
7.051788098E1,5.742128938E-2,-4.535670951E-2,1.603520103E-2
7.056598078E1,1.198822167E-2,-2.802342176E-2,-6.185005885E-3
7.061408062E1,-5.535962060E-2,4.046979174E-2,-2.542724647E-2
7.066218041E1,-7.574722916E-2,3.909534588E-2,-4.214967042E-2
7.071028026E1,2.000582218E-2,-2.519817278E-2,-1.756236330E-2
7.075838005E1,5.558869615E-2,-4.375318810E-2,-2.596175298E-3
7.080647984E1,1.992946304E-2,-2.909243479E-2,-3.283398226E-3
7.085457963E1,-7.559451740E-3,1.832594350E-2,-2.290742996E-4
7.090267942E1,-2.710712515E-2,1.023198478E-2,9.162971750E-3
7.095077927E1,-2.474002354E-2,2.901607659E-3,5.879573524E-3
7.099887906E1,7.024944760E-3,-2.939786762E-2,5.192350596E-3
7.104697885E1,8.933897130E-3,-2.038761228E-2,1.954767294E-2
7.109507864E1,-5.955931731E-3,-1.000291109E-2,3.619373962E-2
7.114317838E1,-5.398517475E-2,3.588830587E-3,3.878991306E-2
7.119127817E1,-5.971203372E-2,-4.276053514E-3,1.962403022E-2
7.123937796E1,6.108647678E-3,4.276053514E-3,6.414080039E-3
7.128747776E1,-2.481638081E-2,-3.168861195E-2,-3.054323839E-3
7.133557750E1,-6.261364091E-3,1.656970754E-2,-1.221729536E-2
7.138367729E1,-2.977965772E-2,-7.559451740E-3,-2.741255611E-2
7.143177703E1,-2.641990222E-2,-9.773836471E-3,-3.168861195E-2
7.147987682E1,1.481347065E-2,-4.512763396E-2,-1.763872057E-2
7.152797656E1,2.489273995E-2,-2.802342176E-2,-5.574141163E-3
7.157607635E1,-4.123337194E-2,1.710421406E-2,-2.634354308E-2
7.162417609E1,1.634063199E-2,-1.275180187E-2,3.512472380E-3
7.167227583E1,2.008217946E-2,-4.375318810E-2,2.832885459E-2
7.172037557E1,4.581485875E-3,-9.850194678E-3,2.306014486E-2
7.176847531E1,7.559451740E-3,-9.850194678E-3,6.185005885E-3
7.181657505E1,-8.704823442E-3,2.000582218E-2,2.901607659E-3
7.186467479E1,5.345066893E-4,-6.337722298E-3,1.015562657E-2
7.191277453E1,3.428478539E-2,-1.916588284E-2,3.199404106E-2
7.196087427E1,-8.399390499E-4,9.621120058E-3,1.527161989E-2
7.200897401E1,-7.101303339E-2,5.230529606E-2,-3.199404106E-2
7.205707375E1,-1.015562657E-2,5.047270283E-2,-4.421133921E-2
7.210517343E1,2.489273995E-2,-1.282816008E-2,-3.497200832E-2
7.215327317E1,1.076649129E-2,-1.183550525E-2,-8.475748822E-3
7.220137305E1,8.475748822E-3,-5.421424750E-3,2.825249685E-3
7.224947273E1,1.519526169E-2,-6.566796452E-3,1.183550525E-2
7.229757242E1,2.290742937E-3,-1.450803829E-3,-4.505127668E-3
7.234567216E1,-2.703076601E-2,2.344193682E-2,-1.618791744E-2
7.239377185E1,-1.886045001E-2,-7.177661173E-3,-2.657261863E-2
7.244187154E1,2.252563834E-2,-4.734201822E-3,-1.237001177E-2
7.248997127E1,-5.039634649E-3,-3.283398226E-3,3.436114406E-3
7.253807096E1,-3.283398226E-2,2.214384731E-3,-1.527161920E-3
7.258617065E1,3.894263133E-2,-2.367100911E-3,3.512472380E-3
7.263427034E1,1.550069358E-2,-1.832594350E-2,1.145371422E-2
7.268237002E1,-1.397353224E-2,1.221729559E-3,6.261364091E-3
7.273046971E1,1.252272818E-2,-2.214384731E-3,1.443168055E-2
7.277856940E1,-4.474584386E-2,2.306014486E-2,7.635809598E-4
7.282666909E1,2.054032870E-2,-2.672533505E-3,1.985310577E-2
7.287476872E1,1.977674663E-2,6.185005885E-3,2.939786762E-2
7.292286841E1,4.581485991E-4,1.046105940E-2,2.390008420E-2
7.297096810E1,4.993819445E-2,3.932442144E-2,1.137735695E-2
7.301906773E1,4.970912263E-2,-9.468403645E-3,1.649334840E-2
7.306716742E1,4.772381112E-2,3.543015569E-2,2.779434808E-2
7.311526711E1,-1.191186346E-2,4.352411721E-3,2.817613818E-2
7.316336674E1,4.963276442E-3,2.970330045E-2,3.550651670E-2
7.321146638E1,3.184132650E-2,-1.244636998E-2,1.656970754E-2
7.325957195E1,4.589121789E-2,1.924224012E-2,-2.657261863E-2
7.330766570E1,3.344484791E-2,-9.162971983E-4,-2.435823344E-2
7.335576534E1,4.100430012E-2,-2.084576152E-2,-3.222311661E-2
7.340386502E1,6.902772188E-2,-1.427896414E-2,-5.726857111E-3
7.345196461E1,1.389717404E-2,-1.183550525E-2,6.337722298E-3
7.350006430E1,2.443459071E-2,6.337722298E-3,1.649334840E-2
7.354816388E1,-2.626718581E-2,7.635809743E-5,2.023489587E-2
7.359626357E1,-1.870773360E-2,2.237292193E-2,1.603520103E-2
7.364436315E1,2.290742996E-4,6.643154658E-3,3.054323897E-4
7.369246284E1,4.436405376E-2,-1.901316643E-2,7.177661173E-3
7.374056242E1,-4.024071619E-2,1.305723470E-2,4.657844082E-3
7.378866206E1,-1.748600416E-2,2.054032870E-2,-6.261364091E-3
7.383676169E1,1.496618707E-2,2.932151034E-2,-1.007926930E-2
7.388486127E1,-9.010255337E-3,-2.977965865E-3,-1.076649129E-2
7.393296091E1,2.458730713E-2,-2.596175298E-3,-9.697478265E-3
7.398106054E1,-5.421424750E-3,-1.550069358E-2,-1.740964688E-2
7.402916013E1,3.741546767E-3,3.283398226E-3,-1.817322709E-2
7.407725976E1,9.162971983E-4,-1.145371469E-3,-1.305723470E-2
7.412535940E1,-1.466075517E-2,3.054323897E-4,-7.406735327E-3
7.417345898E1,1.259908639E-2,-1.435532235E-2,3.436114406E-3
7.422155857E1,-8.323032409E-3,-1.572976820E-2,-7.635809743E-5
7.426965815E1,-1.107192412E-2,-5.115992390E-3,4.123337101E-3
7.431775778E1,2.290742937E-3,-1.267544460E-2,-2.672533505E-3
7.436585737E1,3.199404106E-2,1.473711245E-2,8.323032409E-3
7.441395695E1,-4.734201822E-3,-1.275180187E-2,1.130099874E-2
7.446205659E1,-2.825249685E-3,2.787070535E-2,1.626427472E-2
7.451015617E1,-3.611737862E-2,1.588248461E-2,4.352411721E-3
7.455825575E1,2.336557768E-2,1.038470119E-2,1.122464053E-2
7.460635534E1,2.252563834E-2,1.603520010E-3,1.626427472E-2
7.465445492E1,5.115992390E-3,-1.572976820E-2,1.542433538E-2
7.470255450E1,1.756236330E-2,1.320995111E-2,1.504254527E-2
7.475065409E1,1.916588284E-2,-3.000873141E-2,7.864884101E-3
7.479875367E1,1.038470119E-2,1.206457894E-2,8.933897130E-3
7.484685320E1,-1.802051067E-2,-1.221729536E-2,4.581485991E-4
7.489495273E1,-2.244928107E-2,1.336266659E-2,9.621120058E-3
7.494305232E1,-1.069013379E-3,8.017600514E-3,1.695149764E-2
7.499115190E1,1.908952487E-3,1.443168055E-2,2.817613818E-2
7.503925148E1,-1.374445739E-3,8.933897130E-3,4.352411628E-2
7.508735107E1,-2.603811212E-2,-1.450803829E-3,2.390008420E-2
7.513545060E1,3.397935256E-2,2.275471389E-2,1.237001177E-2
7.518355013E1,1.374445739E-3,-2.138026757E-3,4.581485991E-4
7.523164971E1,1.351538301E-2,3.520108387E-2,1.542433538E-2
7.527974930E1,-4.298960790E-2,3.665188793E-3,2.138026804E-2
7.532784877E1,6.872228812E-3,4.886918236E-3,2.634354308E-2
7.537594836E1,-4.505127668E-3,-1.679878100E-3,7.406735327E-3
7.542404794E1,-1.840230078E-2,-1.374445739E-3,5.268708803E-3
7.547214742E1,-9.010255337E-3,8.399390616E-3,2.214384731E-3
7.552024700E1,-8.093958721E-3,-5.115992390E-3,2.008217946E-2
7.556834654E1,-2.321286127E-2,3.222311661E-2,9.468403645E-3
7.561644607E1,-1.038470119E-2,4.352411721E-3,1.809686981E-2
7.566454565E1,-2.176205814E-2,-3.588830587E-3,1.679878123E-2
7.571264513E1,7.254019380E-3,-1.504254527E-2,1.443168055E-2
7.576074471E1,1.221729536E-2,-1.656970754E-2,-2.099847607E-2
7.580884419E1,4.344775900E-2,-1.305723470E-2,-2.191477455E-2
7.585694377E1,5.039634649E-3,-1.832594350E-2,-5.879573524E-3
7.590504325E1,-3.397935256E-2,-4.337139800E-2,4.963276442E-3
7.595314279E1,-1.198822167E-2,-1.214093715E-2,-2.794706449E-2
7.600124232E1,1.847865991E-2,-2.710712515E-2,-5.184714869E-2
7.604934180E1,3.840812296E-2,-2.443459071E-2,-4.344775900E-2
7.609744138E1,1.313359290E-2,-1.695149764E-2,-1.565340906E-2
7.614554086E1,-1.153007243E-2,1.840230078E-2,1.114828233E-2
7.619364034E1,-3.214675933E-2,2.054032870E-2,2.061668551E-3
7.624173992E1,3.665188793E-3,2.214384731E-3,-1.603520010E-3
7.628983940E1,3.436114267E-2,-3.970621154E-3,-1.244636998E-2
7.633793888E1,-1.733328775E-2,1.137735695E-2,-1.084284950E-2
7.638603836E1,-2.290742844E-2,1.198822167E-2,1.030834299E-2
7.643413794E1,-3.947713599E-2,-1.221729559E-3,1.259908639E-2
7.648223742E1,-8.093958721E-3,1.206457894E-2,6.108647678E-3
7.653033690E1,2.901607659E-3,-3.420842811E-2,-1.756236330E-2
7.657843638E1,-2.061668551E-3,-1.107192412E-2,-2.367101051E-2
7.662653586E1,-5.192350596E-3,-1.450803876E-2,-1.069013402E-2
7.667463534E1,-1.038470119E-2,-1.145371469E-3,1.511890348E-2
7.672273492E1,-2.405280061E-2,2.237292193E-2,3.191768378E-2
7.677083440E1,-1.275180187E-2,2.764163166E-2,2.191477455E-2
7.681893388E1,8.399390499E-4,6.429351866E-2,1.794415340E-2
7.686703336E1,-4.046979174E-2,6.070468575E-2,1.962403022E-2
7.691513284E1,-2.825249545E-2,6.467530876E-2,3.031416424E-2
7.696323232E1,-3.489565104E-2,5.161807314E-2,1.985310577E-2
7.701133180E1,-9.010255337E-3,1.893680729E-2,1.168278884E-2
7.705943127E1,7.406735327E-3,2.825249685E-3,5.497782957E-3
7.710753075E1,9.010255337E-3,-8.552107029E-3,7.635809947E-3
7.715563023E1,-2.061668551E-3,-2.428187430E-2,5.803215317E-3
7.720372971E1,1.298087649E-2,-1.695149764E-2,-1.794415340E-2
7.725182919E1,1.580612548E-2,-4.192059487E-2,-3.199404106E-2
7.729992867E1,2.176205814E-2,-1.046105940E-2,-3.168861195E-2
7.734802815E1,-3.306305781E-2,-3.054323897E-4,-1.847865991E-2
7.739612763E1,6.185005885E-3,3.970621154E-3,-1.985310577E-2
7.744422711E1,6.406444311E-2,-1.214093715E-2,-1.168278884E-2
7.749232659E1,4.375318810E-2,-8.246674202E-3,1.572976820E-2
7.754042607E1,3.207040019E-3,1.870773360E-2,3.543015569E-2
7.758852549E1,2.367100911E-3,4.550942779E-2,3.672824427E-2
7.763662492E1,-2.405280061E-2,4.222602770E-2,3.184132650E-2
7.768472440E1,-4.734201822E-3,6.795870606E-3,1.901316643E-2
7.773282388E1,6.948587019E-3,2.145662531E-2,1.710421406E-2
7.778092336E1,-2.031125315E-2,-1.458439697E-2,1.672242396E-2
7.782902284E1,6.948587019E-3,-8.704823442E-3,2.970330045E-2
7.787712232E1,-4.657844082E-3,-1.886045001E-2,2.970330045E-2
7.792522180E1,-1.153007243E-2,8.170315996E-3,2.092211880E-2
7.797332122E1,-6.566796452E-3,-2.443459118E-3,2.451094985E-2
7.802142065E1,7.483093534E-3,-9.697478265E-3,2.168569900E-2
7.806952013E1,1.572976820E-2,-7.559451740E-3,1.809686981E-2
7.811761961E1,4.810560029E-3,-1.557705179E-2,1.488982886E-2
7.816571909E1,-3.413207084E-2,1.007926930E-2,1.382081583E-2
7.821381857E1,-2.015853859E-2,-1.649334840E-2,1.183550525E-2
7.826191799E1,-1.206457894E-2,-5.650499370E-3,-4.428769462E-3
7.831001742E1,2.206749097E-2,6.719512399E-3,-1.939495653E-2
7.835811690E1,-5.192350596E-3,-6.872228696E-4,-6.108647678E-3
7.840621638E1,-1.046105940E-2,-1.198822167E-2,6.719512399E-3
7.845431586E1,-2.099847607E-2,-3.665188793E-3,5.345066893E-4
7.850241534E1,-6.032289471E-3,-1.397353224E-2,-7.864884101E-3
7.855051471E1,-1.160643063E-2,3.436114406E-3,6.948587019E-3
7.859861419E1,-4.016435891E-2,-4.505127668E-3,1.061377581E-2
7.864671367E1,6.719512399E-3,2.206749097E-2,1.351538301E-2
7.869481315E1,2.916879393E-2,-1.336266659E-2,7.330377586E-3
7.874291263E1,3.313941509E-2,-1.000291109E-2,6.337722298E-3
7.879101211E1,-2.458730713E-2,5.268708803E-3,-1.084284950E-2
7.883911148E1,-2.031125315E-2,8.475748822E-3,-8.781181648E-3
7.888721096E1,-1.985310577E-3,9.926552884E-3,-4.810560029E-3
7.893531044E1,1.351538301E-2,5.115992390E-3,-1.015562657E-2
7.898340992E1,1.145371422E-2,1.183550525E-2,-1.488982886E-2
7.903150940E1,5.192350596E-3,-8.323032409E-3,-1.580612548E-2
7.907960883E1,-3.512472380E-3,-3.817904973E-3,-1.404988952E-2
7.912770825E1,-4.505127668E-3,-1.572976820E-2,-8.781181648E-3
7.917580773E1,1.679878100E-3,1.473711245E-2,-5.726857111E-3
7.922390721E1,-1.130099874E-2,-4.734201822E-3,-3.817904799E-4
7.927200669E1,7.177661173E-3,3.665188793E-3,7.712167688E-3
7.932010617E1,-2.122755162E-2,7.406735327E-3,3.741546767E-3
7.936820565E1,5.650499370E-3,-7.864884101E-3,2.825249685E-3
7.941630502E1,-2.893971838E-2,-4.810560029E-3,-1.886045001E-2
7.946440450E1,-2.634354308E-2,4.161516204E-2,-3.420842811E-2
7.951250398E1,-1.527161920E-3,8.170315996E-3,-3.443750367E-2
7.956060346E1,-2.336557768E-2,-1.450803829E-3,-8.017600514E-3
7.960870294E1,-1.504254527E-2,-2.283107117E-2,2.519817324E-3
7.965680242E1,-2.000582218E-2,1.221729536E-2,-2.710712515E-2
7.970490190E1,-1.954767294E-2,-1.756236330E-2,-1.970038936E-2
7.975300138E1,-6.795870606E-3,-6.108647794E-4,-7.254019380E-3
7.980110080E1,-1.527161949E-4,-1.130099874E-2,-4.581485991E-4
7.984920023E1,-1.069013379E-3,9.086613543E-3,-2.367100911E-3
7.989729971E1,-5.276344717E-2,1.183550525E-2,-2.367101051E-2
7.994539919E1,-1.756236330E-2,2.817613818E-2,-3.871355578E-2
7.999349867E1,3.772090003E-2,-1.527161920E-3,-1.855501719E-2
8.004159815E1,3.695731983E-2,-5.726857111E-3,-5.345067009E-3
8.008969763E1,-2.901607659E-3,1.252272818E-2,9.162971983E-4
8.013779711E1,-1.603520103E-2,7.406735327E-3,9.544761851E-3
8.018589659E1,-2.603811212E-2,4.123337101E-3,-7.559451740E-3
8.023399607E1,-1.756236190E-3,1.374445762E-2,-1.870773360E-2
8.028209554E1,-1.015562657E-2,3.512472380E-3,-1.672242396E-2
8.033019502E1,9.086613543E-3,-3.588830587E-3,5.421424750E-3
8.037829450E1,6.261364091E-3,-3.199404106E-2,2.619082667E-2
8.042639398E1,-1.007926930E-2,-1.427896414E-2,2.748891478E-3
8.047449357E1,-2.367101051E-2,7.406735327E-3,-3.527744114E-2
8.052259305E1,-1.267544460E-2,9.468403645E-3,-2.588539571E-2
8.057069252E1,-3.642281145E-2,1.511890348E-2,-1.679878123E-2
8.061879200E1,1.847865991E-2,2.512181364E-2,5.345067009E-3
8.066689148E1,4.444041103E-2,2.672533505E-3,2.787070535E-2
8.071499096E1,1.114828233E-2,1.175914705E-2,2.603811212E-2
8.076309055E1,2.290742844E-2,2.878700197E-2,1.992946304E-2
8.081119002E1,1.924224012E-2,-8.475748822E-3,8.017600514E-3
8.085928950E1,3.688096255E-2,2.328922041E-2,-1.603520010E-3
8.090738898E1,6.032289471E-3,-0.000000000E0,1.007926930E-2
8.095548857E1,-1.756236190E-3,1.099556591E-2,1.046105940E-2
8.100358804E1,1.527161989E-2,2.901607752E-2,9.468403645E-3
8.105168752E1,-5.268708803E-3,-1.779143699E-2,-6.643154658E-3
8.109978711E1,2.092211880E-2,5.268708803E-3,-8.170315996E-3
8.114788659E1,-2.596175298E-3,-2.496909723E-2,-1.007926930E-2
8.119598607E1,-1.634063199E-2,4.031707719E-2,-1.061377581E-2
8.124408565E1,-2.183841541E-2,2.367100911E-3,-5.955931731E-3
8.129218513E1,2.474002354E-2,1.107192412E-2,4.963276442E-3
8.134028461E1,1.550069358E-2,5.345067009E-3,8.093958721E-3
8.138838419E1,1.649334840E-2,1.695149764E-2,6.872228812E-3
8.143648367E1,3.512472380E-3,1.298087649E-2,-3.436114406E-3
8.148458325E1,3.069595434E-2,4.123337101E-3,-6.948587019E-3
8.153268273E1,2.084576152E-2,2.290742937E-3,-2.290742937E-3
8.158078232E1,-1.618791744E-2,2.481638081E-2,4.581485991E-4
8.162888180E1,-7.788525894E-3,2.809977904E-2,2.367100911E-3
8.167698138E1,1.771507785E-2,4.428769462E-3,4.352411721E-3
8.172508086E1,2.489273995E-2,-6.185005885E-3,-8.628465235E-3
8.177318044E1,2.955058403E-2,5.879573524E-3,-1.305723470E-2
8.182127992E1,-1.427896414E-2,4.734201822E-3,-1.267544460E-2
8.186937950E1,-1.076649129E-2,-2.214384731E-3,-3.741546767E-3
8.191747898E1,-3.054323839E-3,1.992946304E-2,5.650499370E-3
8.196557857E1,3.436114406E-3,-1.466075517E-2,7.101302966E-3
8.201367804E1,-4.046979360E-3,-4.581485875E-3,1.122464053E-2
8.206177763E1,7.635809598E-4,-3.054323897E-4,-7.559451740E-3
8.210987711E1,2.306014486E-2,1.595884189E-2,-2.336557768E-2
8.215797669E1,9.697478265E-3,-2.275471389E-2,-2.519817278E-2
8.220607617E1,-1.183550525E-2,-2.588539571E-2,1.091920771E-2
8.225417575E1,-1.191186346E-2,-1.908952487E-3,1.832594350E-2
8.230227523E1,-5.154171586E-2,-1.244636998E-2,-3.283398226E-2
8.235037482E1,6.520981342E-2,2.641990222E-2,-2.344193682E-2
8.239847430E1,-1.221729559E-3,-3.894262947E-3,-6.337722298E-3
8.244657388E1,-2.596175298E-3,2.138026804E-2,3.275762498E-2
8.249467341E1,-2.153298259E-2,7.330377586E-3,2.771798894E-2
8.254277294E1,-1.679878100E-3,2.199113183E-2,-4.734201822E-3
8.259087247E1,-9.621120058E-3,1.748600416E-2,-3.153589368E-2
8.263897200E1,-2.138026757E-3,1.473711245E-2,-1.153007243E-2
8.268707159E1,3.665188793E-3,3.512472380E-3,1.504254527E-2
8.273517107E1,3.955349326E-2,-1.702785492E-2,2.939786762E-2
8.278327065E1,2.519817278E-2,-1.099556591E-2,2.756527252E-2
8.283137013E1,-4.634936526E-2,2.328922041E-2,1.473711245E-2
8.287946971E1,-7.078395784E-2,-1.641699113E-2,-1.427896414E-2
8.292756919E1,-1.206457894E-2,-7.483093534E-3,-2.092211880E-2
8.297566877E1,7.635809598E-4,-3.649916872E-2,-1.496618707E-2
8.302376825E1,3.130681813E-2,-4.276053514E-3,-2.214384731E-3
8.307186784E1,-1.595884189E-2,4.276053607E-2,9.086613543E-3
8.311996732E1,-2.779434808E-2,1.710421406E-2,1.504254527E-2
8.316806690E1,2.290742996E-4,-5.039634649E-3,1.527161949E-4
8.321616638E1,-5.192350596E-3,-5.574141163E-3,-2.848157100E-2
8.326426591E1,-2.733619884E-2,1.985310577E-2,-2.680169232E-2
8.331236544E1,-3.985892609E-2,7.024944760E-3,-1.038470119E-2
8.336046497E1,1.985310577E-2,2.725984156E-2,1.198822167E-2
8.340856450E1,4.176788032E-2,-3.642281145E-2,2.015853859E-2
8.345666398E1,1.504254527E-2,-3.901898861E-2,1.588248461E-2
8.350476357E1,-2.466366626E-2,6.566796452E-3,-1.756236190E-3
8.355286305E1,-6.520981342E-2,-8.781181648E-3,-2.573267929E-2
8.360096252E1,-2.000582218E-2,-1.130099874E-2,-1.702785492E-2
8.364906211E1,6.414080039E-3,-2.871064469E-2,-7.864884101E-3
8.369716159E1,1.481347065E-2,-1.061377581E-2,1.137735695E-2
8.374526117E1,1.878409274E-2,6.185005885E-3,3.252854943E-2
8.379336065E1,-2.703076601E-2,4.505127668E-3,2.603811212E-2
8.384146013E1,-7.330377586E-3,1.939495653E-2,2.947422490E-2
8.388955971E1,-6.330086291E-2,1.504254527E-2,-5.345067009E-3
8.393765919E1,-1.740964688E-2,2.351829410E-2,-2.435823344E-2
8.398575867E1,1.290451828E-2,-1.130099874E-2,-2.741255611E-2
8.403385815E1,1.145371469E-3,-1.855501719E-2,6.414080039E-3
8.408195773E1,-1.847865991E-2,-2.374736778E-2,-8.475748822E-3
8.413005721E1,1.290451828E-2,2.138026757E-3,-5.115992390E-3
8.417815669E1,1.015562657E-2,-2.313650399E-2,4.428769462E-3
8.422625617E1,-1.527161949E-4,7.024944760E-3,1.542433538E-2
8.427435575E1,-4.925097153E-2,-2.054032870E-2,1.107192412E-2
8.432245523E1,-6.872228696E-4,1.267544460E-2,1.397353224E-2
8.437055471E1,5.421424750E-3,-1.962403022E-2,8.552107029E-3
8.441865419E1,2.802342176E-2,7.024944760E-3,1.756236330E-2
8.446675367E1,-6.108647794E-4,1.824958436E-2,1.366809942E-2
8.451485315E1,-1.603520010E-3,1.664606482E-2,-5.421424750E-3
8.456295273E1,-1.924224012E-2,1.015562657E-2,-2.519817278E-2
8.461105221E1,1.565340906E-2,-1.237001177E-2,-2.550360374E-2
8.465915169E1,-1.725693047E-2,-5.650499370E-3,-3.779725730E-2
8.470725117E1,-1.824958436E-2,4.352411721E-3,-3.428478539E-2
8.475535065E1,9.392046370E-3,-8.170315996E-3,-1.916588284E-2
8.480345013E1,9.468403645E-3,-2.977965865E-3,2.214384731E-3
8.485154961E1,-8.781181648E-3,-3.588830587E-3,7.712167688E-3
8.489964909E1,-5.039634649E-3,6.414080039E-3,7.483093534E-3
8.494774857E1,1.237001177E-2,-1.221729536E-2,-2.290742996E-4
8.499584804E1,-3.207040019E-3,3.130682046E-3,2.138026757E-3
8.504394752E1,1.634063199E-2,8.323032409E-3,2.336557768E-2
8.509204700E1,-2.214384824E-2,-7.024944760E-3,3.161225095E-2
8.514014648E1,5.879573524E-3,1.420260593E-2,3.039052337E-2
8.518824596E1,-2.825249685E-3,-2.504545636E-2,1.290451828E-2
8.523634534E1,2.099847607E-2,-1.488982886E-2,1.313359290E-2
8.528444482E1,-2.977965865E-3,7.024944760E-3,1.137735695E-2
8.533254430E1,-3.909534588E-2,4.069886729E-2,-8.399390499E-4
8.538064377E1,-1.908952370E-2,2.321286127E-2,-7.559451740E-3
8.542874325E1,1.939495653E-2,-1.458439697E-2,-1.947131567E-2
8.547684273E1,3.619373962E-2,-3.459021822E-2,-2.741255611E-2
8.552494211E1,1.740964688E-2,-1.061377581E-2,-3.359756246E-2
8.557304159E1,-6.185005885E-3,-1.336266659E-2,-8.704823442E-3
8.562114107E1,-1.336266659E-2,2.000582218E-2,-9.086613543E-3
8.566924055E1,-1.374445739E-3,-3.512472380E-3,-5.650499370E-3
8.571733992E1,-1.221729536E-2,2.176205814E-2,-5.268708803E-3
8.576543940E1,-8.093958721E-3,2.672533505E-3,-1.389717404E-2
8.581353888E1,2.962694131E-2,-5.268708803E-3,-2.008217946E-2
8.586163825E1,4.757109284E-2,-1.198822167E-2,6.872228696E-4
8.590973773E1,-1.382081583E-2,1.114828233E-2,-3.130682046E-3
8.595783716E1,-4.795288667E-2,1.206457894E-2,-1.794415340E-2
8.600593659E1,8.246674202E-3,4.581485991E-4,-1.030834299E-2
8.605403607E1,2.588539571E-2,-3.016144782E-2,6.337722298E-3
8.610213544E1,1.305723470E-2,-6.948587019E-3,-3.054323897E-4
8.615023492E1,-3.168861195E-2,1.802051067E-2,7.024944760E-3
8.619833430E1,-2.489273995E-2,-8.475748822E-3,8.017600514E-3
8.624643377E1,-1.084284950E-2,6.643154658E-3,1.137735695E-2
8.629453315E1,-1.580612548E-2,-1.947131567E-2,-1.672242396E-2
8.634263263E1,-7.254019380E-3,1.435532235E-2,-1.824958436E-2
8.639073200E1,-2.428187430E-2,-1.580612548E-2,-3.375028074E-2
8.643883148E1,3.947713599E-2,2.993237413E-2,-3.352120519E-2
8.648693086E1,1.886045001E-2,-4.886918142E-2,1.603520010E-3
8.653503028E1,-5.115992390E-3,1.802051067E-2,1.466075517E-2
8.658312971E1,-3.573558852E-2,-1.863137633E-2,-2.367100911E-3
8.663122909E1,5.345066893E-4,9.086613543E-3,1.832594397E-3
8.667932857E1,8.552107029E-3,-2.420551702E-2,2.206749097E-2
8.672742794E1,-7.712167688E-3,3.283398226E-3,3.306305781E-2
8.677552732E1,-3.619373962E-2,3.703367710E-2,2.397644334E-2
8.682362674E1,-9.010255337E-3,2.015853859E-2,6.643154658E-3
8.687172617E1,1.000291109E-2,-1.336266659E-2,-1.496618707E-2
8.691982555E1,1.664606482E-2,-1.320995111E-2,-1.771507785E-2
8.696792492E1,2.138026757E-3,6.872228696E-4,-3.153589368E-2
8.701602435E1,-9.162971983E-4,1.069013402E-2,-4.276053514E-3
8.706412377E1,-9.926552884E-3,-1.336266659E-2,1.229365356E-2
8.711222315E1,-9.315688163E-3,-8.170315996E-3,-3.130682046E-3
8.716032252E1,3.581194952E-2,-2.191477455E-2,-3.413207084E-2
8.720842190E1,3.741546767E-3,-4.886918236E-3,-2.886336111E-2
8.725652127E1,-2.893971838E-2,-3.069595434E-2,-2.115119249E-2
8.730462070E1,6.108647794E-4,3.436114406E-3,-1.145371422E-2
8.735272008E1,-2.519817278E-2,-3.611737862E-2,-1.572976820E-2
8.740081950E1,-1.824958436E-2,1.626427472E-2,-5.879573524E-3
8.744891888E1,-5.482511222E-2,-3.443750367E-2,2.214384731E-3
8.749701825E1,-4.245510325E-2,4.688387364E-2,1.137735695E-2
8.754511763E1,1.168278884E-2,-2.191477455E-2,3.718639165E-2
8.759321700E1,8.071050793E-2,5.955931731E-3,7.261654735E-2
8.764131638E1,2.397644334E-2,-1.817322709E-2,8.338304609E-2
8.768941575E1,5.115992390E-3,2.176205814E-2,4.375318810E-2
8.773751513E1,4.688387364E-2,2.802342176E-2,6.872228696E-4
8.778561445E1,4.398226365E-2,-3.901898861E-2,1.901316643E-2
8.783371383E1,2.687804960E-2,-4.237874225E-2,4.436405376E-2
8.788181315E1,-4.596757516E-2,-5.520690605E-2,2.481638081E-2
8.792991252E1,4.100430012E-2,-6.948587019E-3,-1.267544460E-2
8.797801190E1,4.489856213E-2,-2.428187430E-2,-4.253146052E-2
8.802611127E1,3.733910993E-2,-5.497782957E-3,-2.985601686E-2
8.807421065E1,1.908952370E-2,-2.099847607E-2,-6.490438245E-3
8.812230997E1,3.733910993E-2,-3.176496923E-2,8.093958721E-3
8.817040935E1,3.252854943E-2,4.046979360E-3,1.618791744E-2
8.821850867E1,-6.185005885E-3,-1.252272818E-2,1.954767294E-2
8.826660805E1,-1.603520103E-2,2.267835476E-2,2.046396956E-2
8.831470742E1,8.857538924E-3,-1.893680729E-2,2.611446939E-2
8.836280674E1,1.985310577E-3,-3.207040019E-3,1.374445762E-2
8.841090607E1,1.748600416E-2,-2.069304511E-2,2.145662531E-2
8.845900544E1,2.367100911E-3,-8.246674202E-3,1.038470119E-2
8.850710476E1,8.857538924E-3,-2.153298259E-2,1.412624773E-2
8.855520409E1,-4.581485991E-4,-2.122755162E-2,-6.108647794E-4
8.860330346E1,-2.390008420E-2,-1.626427472E-2,-2.038761228E-2
8.865140278E1,2.099847607E-2,-4.276053514E-3,-1.771507785E-2
8.869950211E1,-2.069304511E-2,-4.199695308E-3,-3.321577236E-2
8.874760148E1,-4.864010960E-2,1.153007243E-2,-1.634063199E-2
8.879570075E1,-4.581485991E-4,-4.810560029E-3,-6.414080039E-3
8.884380013E1,1.786779426E-2,-1.802051067E-2,-1.275180187E-2
8.889189945E1,2.817613818E-2,1.374445739E-3,-1.183550525E-2
8.893999877E1,-4.428769462E-3,-5.039634649E-3,-1.069013379E-3
8.898809810E1,-2.588539571E-2,3.703367710E-2,-9.086613543E-3
8.903619742E1,-3.665188793E-3,4.886918236E-3,-2.901607659E-3
8.908429674E1,4.306596518E-2,1.603520010E-3,-1.550069358E-2
8.913239607E1,1.175914705E-2,-2.130390890E-2,-5.726857111E-3
8.918049539E1,-2.031125315E-2,1.626427472E-2,-2.802342176E-2
8.922859471E1,9.773836471E-3,2.519817278E-2,-2.871064469E-2
8.927669404E1,1.359174121E-2,3.817904799E-4,-2.054032870E-2
8.932479336E1,8.628465235E-3,2.901607659E-3,-1.137735695E-2
8.937289268E1,-5.039634649E-3,-3.741546767E-3,-6.643154658E-3
8.942099200E1,2.825249545E-2,3.459021822E-2,9.315688163E-3
8.946909127E1,-4.864010960E-2,-5.650499370E-3,1.740964688E-2
8.951719065E1,1.488982886E-2,4.421133921E-2,2.489273995E-2
8.956528992E1,1.527161920E-3,3.130682046E-3,8.246674202E-3
8.961338924E1,2.596175298E-2,2.031125315E-2,1.214093715E-2
8.966148857E1,4.696023092E-2,1.649334840E-2,1.603520103E-2
8.970958784E1,1.985310577E-2,1.626427472E-2,2.863428742E-2
8.975768721E1,-2.474002354E-2,3.237583488E-2,2.466366626E-2
8.980578648E1,-3.504836559E-2,3.886627033E-2,8.704823442E-3
8.985388580E1,-1.756236330E-2,2.741255611E-2,-4.734201822E-3
8.990198513E1,-6.566796452E-3,2.099847607E-2,9.926552884E-4
8.995008440E1,2.519817278E-2,-3.054323897E-4,5.650499370E-3
8.999818372E1,6.414080039E-3,-1.099556591E-2,6.032289471E-3
9.004628305E1,6.795870606E-3,2.275471389E-2,2.672533505E-3
9.009438232E1,-1.985310577E-3,5.115992390E-3,6.872228696E-4
9.014248164E1,-6.490438245E-3,1.458439697E-2,-0.000000000E0
9.019058096E1,-1.687514037E-2,-5.574141163E-3,-3.970621154E-3
9.023868023E1,-1.366809942E-2,2.367100911E-3,3.894262947E-3
9.028677956E1,2.977965865E-3,6.185005885E-3,1.412624773E-2
9.033487888E1,-2.359465137E-2,7.941242307E-3,2.000582218E-2
9.038297815E1,-2.787070535E-2,2.367100911E-3,2.901607752E-2
9.043107747E1,-3.191768378E-2,-1.458439697E-2,2.168569900E-2
9.047917674E1,1.046105940E-2,-1.298087649E-3,2.443459118E-3
9.052727607E1,1.664606482E-2,-9.468403645E-3,-2.054032870E-2
9.057537534E1,1.229365356E-2,2.122755162E-2,-9.850194678E-3
9.062347466E1,-5.497782957E-3,-5.345066893E-4,1.603520010E-3
9.067157393E1,1.412624773E-2,-2.061668551E-3,5.803215317E-3
9.071967325E1,1.725693047E-2,1.351538301E-2,-4.505127668E-3
9.076777252E1,3.512472380E-3,3.054323839E-3,-1.221729536E-2
9.081587185E1,-1.000291109E-2,9.392046370E-3,-1.244636998E-2
9.086397112E1,9.773836471E-3,-3.130682046E-3,5.192350596E-3
9.091207044E1,5.650499370E-3,-1.458439697E-2,1.046105940E-2
9.096016971E1,1.504254527E-2,-7.254019380E-3,1.534797717E-2
9.100826898E1,2.825249545E-2,3.588830587E-3,1.282816008E-2
9.105636830E1,-6.795870606E-3,-2.290742996E-4,1.076649129E-2
9.110446758E1,-9.010255337E-3,5.955931731E-3,-2.977965865E-3
9.115256690E1,-3.222311661E-2,-1.298087649E-3,-1.244636998E-2
9.120066617E1,9.468403645E-3,-6.032289471E-3,4.352411721E-3
9.124876544E1,-1.634063199E-2,-1.359174121E-2,2.359465137E-2
9.129686471E1,-1.985310577E-2,2.214384731E-3,4.046979360E-3
9.134496404E1,1.366809942E-2,3.420842811E-2,-1.595884189E-2
9.139306331E1,3.130682046E-3,7.330377586E-3,-8.704823442E-3
9.144116258E1,5.192350596E-3,1.985310577E-3,3.436114406E-3
9.148926190E1,-1.572976820E-2,-1.000291109E-2,-2.367100911E-3
9.153736117E1,-2.657261863E-2,4.360047355E-2,-1.672242396E-2
9.158546044E1,-3.466657549E-2,-1.175914705E-2,-1.672242396E-2
9.163355971E1,1.824958436E-2,2.901607659E-3,6.643154658E-3
9.168165898E1,-2.825249545E-2,-2.557996288E-2,-3.512472380E-3
9.172975825E1,-1.389717404E-2,1.878409274E-2,-1.191186346E-2
9.177785752E1,-6.872228812E-3,-1.725693047E-2,-2.886336111E-2
9.182595685E1,3.077231348E-2,-9.544761851E-3,-3.359756246E-2
9.187405612E1,1.404988952E-2,-1.397353224E-2,-9.697478265E-3
9.192215539E1,-7.406735327E-3,-2.672533505E-3,1.542433538E-2
9.197025466E1,-1.000291109E-2,-1.496618707E-2,1.603520103E-2
9.201835393E1,1.970038936E-2,2.229656465E-2,2.504545636E-2
9.206645320E1,1.748600416E-2,-1.641699113E-2,4.039343446E-2
9.211455247E1,-2.901607752E-2,5.100720748E-2,2.832885459E-2
9.216265174E1,-4.886918142E-2,-3.604102135E-2,4.069886729E-2
9.221075101E1,-9.468403645E-3,4.046979360E-3,2.596175298E-3
9.225885023E1,3.436114406E-3,-1.153007243E-2,-2.008217946E-2
9.230694950E1,2.855792828E-2,-1.069013402E-2,4.352411721E-3
9.235504877E1,-3.039052337E-2,-4.046979174E-2,1.832594350E-2
9.240314805E1,2.932151034E-2,-1.374445739E-3,2.481638081E-2
9.245124732E1,-4.031707719E-2,7.101302966E-3,-1.450803829E-3
9.249934659E1,6.872228812E-3,1.298087649E-2,-1.412624773E-2
9.254744586E1,3.711003438E-2,-6.948587019E-3,-1.702785492E-2
9.259554508E1,4.016435891E-2,-1.733328775E-2,-2.099847607E-2
9.264364435E1,-5.268708803E-3,2.290742996E-4,-1.565340906E-2
9.269174362E1,-1.000291109E-2,1.076649129E-2,-8.857538924E-3
9.273984284E1,1.504254527E-2,-1.305723470E-2,-4.199695308E-3
9.278794211E1,4.222602770E-2,-3.596466407E-2,-3.283398226E-3
9.283604138E1,9.086613543E-3,-1.641699113E-2,-8.399390616E-3
9.288414060E1,-4.352411628E-2,-2.863428742E-2,-1.519526169E-2
9.293223987E1,-6.520981342E-2,9.926552884E-4,-3.627009690E-2
9.298033914E1,-3.573558852E-2,5.803215317E-3,-5.215258151E-2
9.302843836E1,-6.108647794E-4,-1.313359290E-2,-3.634645417E-2
9.307653763E1,5.421425030E-2,-1.374445762E-2,-1.252272818E-2
9.312463685E1,5.421424750E-3,-8.323032409E-3,-1.214093715E-2
9.317273612E1,8.231402934E-2,-3.627009690E-2,9.773836471E-3
9.322083534E1,-1.023198478E-2,-2.130390890E-2,5.879573524E-3
9.326893461E1,-1.771507785E-2,-1.206457894E-2,-3.046688065E-2
9.331703383E1,4.520399496E-2,6.108647678E-3,-1.259908639E-2
9.336513305E1,-4.841103405E-2,2.115119249E-2,-1.183550525E-2
9.341323232E1,-7.757982612E-2,5.933023989E-2,-1.519526169E-2
9.346133154E1,-3.909534588E-2,1.382081583E-2,-3.329212964E-2
9.350943075E1,1.318704337E-1,-4.451677203E-2,-4.581485991E-4
9.355753002E1,8.536835015E-2,-4.184423760E-2,3.130682046E-3
9.360562924E1,-3.856083751E-2,6.719512399E-3,4.352411721E-3
9.365372846E1,-3.665188700E-2,3.153589368E-2,2.596175298E-3
9.370182768E1,1.527161989E-2,-1.298087649E-3,2.298378758E-2
9.374992695E1,3.535379842E-2,1.191186346E-2,3.550651670E-2
9.379802617E1,-5.650499370E-3,5.146535859E-2,1.779143699E-2
9.384612539E1,9.926552884E-3,8.834631741E-2,4.795288667E-2
9.389422461E1,-1.015562657E-2,8.223766834E-2,6.643154472E-2
9.394232383E1,9.621120058E-3,8.651372790E-2,6.719512492E-2
9.399042304E1,5.169443041E-2,3.504836559E-2,5.642863363E-2
9.403852226E1,1.026252806E-1,3.130682046E-3,2.351829410E-2
9.408662148E1,1.036179364E-1,8.017600514E-3,6.643154658E-3
9.413472070E1,2.687804960E-2,7.864884101E-3,8.628465235E-3
9.418281992E1,-1.458439697E-2,3.275762498E-2,3.550651670E-2
9.423091914E1,-2.214384824E-2,4.512763396E-2,3.688096255E-2
9.427901836E1,8.323032409E-3,1.488982886E-2,3.596466407E-2
9.432711758E1,1.412624773E-2,3.397935256E-2,3.153589368E-2
9.437521680E1,-1.412624773E-2,2.099847607E-2,2.076940238E-2
9.442331601E1,3.054323839E-3,2.412915789E-2,2.557996288E-2
9.447141523E1,2.244928107E-2,1.099556591E-2,3.436114267E-2
9.451951440E1,2.977965865E-3,1.130099874E-2,3.649916872E-2
9.456761362E1,3.817904799E-4,1.527161949E-4,2.932151034E-2
9.461571284E1,4.276053514E-3,3.359756200E-3,3.817904799E-4
9.466381206E1,1.672242396E-2,-4.352411721E-3,-9.315688163E-3
9.471191143E1,2.252563834E-2,1.595884189E-2,7.330377586E-3
9.476001044E1,-1.061377581E-2,-1.259908639E-2,2.054032870E-2
9.480810966E1,5.345067009E-3,2.130390890E-2,2.451094985E-2
9.485620883E1,9.239329956E-3,1.298087649E-3,8.857538924E-3
9.490430805E1,2.794706449E-2,-3.283398226E-3,5.574141163E-3
9.495240726E1,-2.283107117E-2,-4.657844082E-3,-6.643154658E-3
9.500050643E1,3.359756200E-3,1.061377581E-2,-2.901607659E-3
9.504860565E1,1.962403022E-2,1.084284950E-2,8.093958721E-3
9.509670482E1,-2.290742937E-3,1.267544460E-2,2.527453005E-2
9.514480404E1,-1.832594350E-2,4.405862093E-2,2.748891525E-2
9.519290320E1,4.581485991E-4,4.581485875E-3,2.466366626E-2
9.524100237E1,3.940077871E-2,1.412624773E-2,1.412624773E-2
9.528910159E1,7.024944760E-3,9.621120058E-3,1.527161989E-2
9.533720075E1,4.046979360E-3,-3.283398226E-3,1.611155830E-2
