"Time (s)","Acceleration x (m/s^2)","Acceleration y (m/s^2)","Acceleration z (m/s^2)"
1.361448300E-2,-9.487541914E-1,6.024528980E0,7.555935860E0
3.285344100E-2,-8.297112584E-1,5.991029739E0,7.891529083E0
8.285344100E-2,-7.040880919E-1,5.837290764E0,8.207980156E0
1.328534410E-1,-3.104687333E-1,5.773283005E0,7.753942013E0
1.828534410E-1,-6.382854581E-1,5.941977024E0,7.639684677E0
2.328534410E-1,-6.131607890E-1,5.872584820E0,8.067401886E0
2.828534410E-1,-4.660021961E-1,5.845665932E0,8.176873207E0
3.328534410E-1,-7.010970116E-1,5.910272121E0,7.935796261E0
3.828534410E-1,-7.357929349E-1,5.964708805E0,7.619943619E0
4.328534410E-1,-6.089733839E-1,5.945566177E0,7.585845947E0
4.828534410E-1,-5.718846321E-1,5.873781204E0,7.847859859E0
5.328534410E-1,-5.593222976E-1,5.918646812E0,7.813164234E0
5.828534410E-1,-5.264210105E-1,5.915655613E0,8.129614830E0
6.328534410E-1,-4.989035130E-1,5.916254044E0,8.000402451E0
6.828534410E-1,-4.671986103E-1,5.861817360E0,7.871190071E0
7.328534410E-1,-4.959124923E-1,5.869594097E0,7.835896015E0
7.828534410E-1,-3.894318938E-1,5.879763603E0,7.953144073E0
8.328534410E-1,-4.384847581E-1,5.857629776E0,7.983054638E0
8.828534410E-1,-4.570291340E-1,5.874379635E0,7.841279984E0
9.328534410E-1,-4.079762697E-1,5.862415314E0,7.907082558E0
9.828534410E-1,-3.852444589E-1,5.860620975E0,7.899903774E0
1.032853441E0,-3.936193287E-1,5.843871117E0,7.962715626E0
1.082853441E0,-3.619144261E-1,5.846862316E0,7.926823139E0
1.132853441E0,-3.906283081E-1,5.865406513E0,7.908876896E0
1.182853441E0,-3.804588020E-1,5.866004944E0,7.863413334E0
1.232853441E0,-3.164508045E-1,5.846263885E0,7.965108395E0
1.282853441E0,-3.714857101E-1,5.857629776E0,7.904689789E0
1.332853441E0,-3.266202807E-1,5.850451469E0,7.908876896E0
1.382853441E0,-3.541377485E-1,5.840879917E0,7.935796261E0
1.432853441E0,-3.541377485E-1,5.840879917E0,7.935796261E0
1.482853441E0,-3.314059377E-1,5.846263885E0,7.853842258E0
1.532853441E0,-3.672982752E-1,5.822335720E0,7.968697548E0
1.582853441E0,-3.260220885E-1,5.857629776E0,7.898109436E0
1.632853441E0,-4.103690982E-1,5.837889194E0,8.035696983E0
1.682853441E0,-3.409772217E-1,5.852245808E0,7.930412292E0
1.732853441E0,-3.732803464E-1,5.824130535E0,7.907082558E0
1.782853441E0,-3.080759048E-1,5.848058701E0,7.987242222E0
1.832853441E0,-4.145565331E-1,5.882754326E0,7.911269665E0
1.882853441E0,-4.067798555E-1,5.825924873E0,7.892725468E0
1.932853441E0,-2.566302419E-1,5.853442192E0,7.963313580E0
1.982853441E0,-3.852444589E-1,5.849853039E0,7.883752346E0
2.032853441E0,-3.320041299E-1,5.877370834E0,7.914859295E0
2.082853441E0,-3.589234054E-1,5.842076302E0,7.926225185E0
2.132853441E0,-4.115654826E-1,5.855237007E0,7.930412292E0
2.182853441E0,-4.115654826E-1,5.855237007E0,7.930412292E0
2.232853441E0,-3.505485058E-1,5.830710411E0,7.920242786E0
2.282853441E0,-3.391826153E-1,5.843272686E0,7.902296543E0
2.332853441E0,-3.768695593E-1,5.819942951E0,7.957331657E0
2.382853441E0,-4.127618968E-1,5.840281963E0,7.950153351E0
2.432853441E0,-3.684946895E-1,5.848656654E0,8.044670105E0
2.482853441E0,-3.804588020E-1,5.812764645E0,7.915457249E0
2.532853441E0,-3.643072546E-1,5.836692810E0,7.888537884E0
2.582853441E0,-4.091726840E-1,5.861218929E0,7.958528042E0
2.632853441E0,-3.212364316E-1,5.826523304E0,7.954340458E0
2.682853441E0,-3.403790295E-1,5.831906796E0,7.882555962E0
2.732853441E0,-3.631108403E-1,5.849255085E0,7.868198872E0
2.782853441E0,-3.726821244E-1,5.840281963E0,7.919046402E0
2.832853441E0,-3.726821244E-1,5.840281963E0,7.919046402E0
2.882853441E0,-3.661018610E-1,5.833701611E0,7.966304779E0
2.932853441E0,-3.930211067E-1,5.854638577E0,7.917252064E0
2.982853441E0,-3.607180119E-1,5.807978630E0,7.935198307E0
3.032853441E0,-3.924229145E-1,5.853442192E0,7.865806103E0
3.082853441E0,-3.631108403E-1,5.857031822E0,7.975875854E0
3.132853441E0,-3.708875179E-1,5.824728489E0,7.918448448E0
3.182853441E0,-3.810569942E-1,5.837290764E0,7.889734268E0
3.232853441E0,-3.864408433E-1,5.833701611E0,8.015357971E0
3.282853441E0,-4.031906128E-1,5.841478348E0,7.942974567E0
3.332853441E0,-4.031906128E-1,5.841478348E0,7.942974567E0
3.382853441E0,-3.768695593E-1,5.845665932E0,7.922635555E0
3.432853441E0,-3.816552162E-1,5.843272686E0,7.978867054E0
3.482853441E0,-3.696911037E-1,5.848656654E0,7.883752346E0
3.532853441E0,-3.750749528E-1,5.822933674E0,8.010572433E0
3.582853441E0,-3.750749528E-1,5.822933674E0,8.010572433E0
3.632853441E0,-3.750749528E-1,5.822933674E0,8.010572433E0
3.682853441E0,-3.750749528E-1,5.839085579E0,7.921439171E0
3.732853441E0,-4.037888348E-1,5.825924873E0,7.950751305E0
3.782853441E0,-3.978067636E-1,5.894718647E0,7.864609718E0
3.832853441E0,-3.978067636E-1,5.894718647E0,7.864609718E0
3.882853441E0,-4.073780477E-1,5.872584820E0,7.912466049E0
3.932853441E0,-3.649054468E-1,5.843272686E0,7.890332699E0
3.982853441E0,-3.690928817E-1,5.872584820E0,7.862216949E0
4.032853441E0,-4.372883439E-1,5.846263885E0,8.020143509E0
4.082853441E0,-4.857429862E-1,5.885147095E0,7.996214867E0
4.132853441E0,-4.857429862E-1,5.885147095E0,7.996214867E0
4.182853441E0,-3.661018610E-1,5.833103180E0,7.936992645E0
4.232853441E0,-4.103690982E-1,5.882156372E0,7.963313580E0
4.282853441E0,-4.103690982E-1,5.882156372E0,7.963313580E0
4.332853441E0,-4.103690982E-1,5.882156372E0,7.963313580E0
4.332853441E0,-4.283152521E-1,5.892923832E0,7.947760582E0
4.432853441E0,-5.102694035E-1,5.935396671E0,7.752147198E0
4.482853441E0,-5.102694035E-1,5.935396671E0,7.752147198E0
4.532853441E0,-5.551348329E-1,5.930012703E0,7.846065521E0
4.582853441E0,-5.551348329E-1,5.930012703E0,7.846065521E0
4.632853441E0,-4.971089065E-1,5.944369793E0,7.840681553E0
4.682853441E0,-4.336991012E-1,5.935396671E0,7.833503246E0
4.732853441E0,-4.336991012E-1,5.935396671E0,7.833503246E0
4.782853441E0,-4.372883439E-1,5.989234924E0,7.876574039E0
4.832853441E0,-4.594219327E-1,5.906084538E0,7.895118237E0
4.882853441E0,-3.254238665E-1,5.909075737E0,7.746763229E0
4.932853441E0,-3.661018610E-1,5.896512985E0,7.751548767E0
4.982853441E0,-3.337987661E-1,5.895316601E0,8.018348694E0
5.032853441E0,-3.014956415E-1,5.852844238E0,7.980661869E0
5.082853441E0,-3.924229145E-1,5.905486107E0,7.764709473E0
5.132853441E0,-2.679961324E-1,5.927619934E0,7.968099594E0
5.182853441E0,-3.661018610E-1,5.874977589E0,7.872984886E0
5.232853441E0,-3.631108403E-1,5.894718647E0,7.853842258E0
5.282853441E0,-2.991028428E-1,5.874977589E0,7.937591076E0
5.332853441E0,-3.792623878E-1,5.858826160E0,7.990232944E0
5.382853441E0,-2.650051117E-1,5.887540340E0,7.899305820E0
5.432853441E0,-2.901297510E-1,5.869594097E0,7.830512047E0
5.482853441E0,-1.537388563E-1,5.896512985E0,7.920242786E0
5.532853441E0,-3.535395563E-1,5.853442192E0,8.036892891E0
5.582853441E0,-2.285145670E-1,5.873781204E0,7.875377655E0
5.632853441E0,-2.584248483E-1,5.864210129E0,7.878368378E0
5.682853441E0,-2.392822653E-1,5.866602898E0,7.930412292E0
5.732853441E0,-2.333002090E-1,5.882156372E0,7.895118237E0
5.782853441E0,-2.727817893E-1,5.886343479E0,7.826324463E0
5.832853441E0,-2.829512656E-1,5.854638577E0,7.840681553E0
5.882853441E0,-2.368894368E-1,5.799603939E0,8.115258217E0
5.932853441E0,-2.249253243E-1,5.830112457E0,8.081160545E0
5.982853441E0,-2.189432681E-1,5.899504185E0,7.759325504E0
6.032853441E0,-2.285145670E-1,5.870192051E0,7.928617954E0
6.082853441E0,-2.297109663E-1,5.877968788E0,7.899305820E0
6.132853441E0,-2.033899277E-1,5.923432350E0,7.942974567E0
6.182853441E0,-5.024927482E-2,5.837290764E0,7.831110477E0
6.232853441E0,-1.776670814E-1,5.837290764E0,7.858029366E0
6.282853441E0,-1.292124242E-1,5.829514027E0,7.907082558E0
6.332853441E0,-2.303091735E-1,5.883352757E0,8.105687141E0
6.382853441E0,-2.368894368E-1,5.854040623E0,7.834699631E0
6.432853441E0,-1.369891018E-1,5.912066460E0,7.800003529E0
6.482853441E0,-1.770688742E-1,5.803791523E0,8.055437088E0
6.532853441E0,-3.409772366E-2,5.849853039E0,7.995018482E0
6.582853441E0,-1.992024779E-1,5.792425632E0,7.954938889E0
6.632853441E0,-2.446661144E-1,5.921039581E0,7.913662910E0
6.682853441E0,-2.961117923E-1,5.859424591E0,8.039285660E0
6.732853441E0,-2.051845491E-1,5.810969830E0,8.024331093E0
6.782853441E0,-1.525424421E-1,5.909673691E0,7.800601959E0
6.832853441E0,-1.818545163E-1,5.830112457E0,7.985447407E0
6.882853441E0,-1.148554832E-1,5.813362598E0,8.030911446E0
6.932853441E0,-1.477568001E-1,5.834897995E0,7.948956966E0
6.982853441E0,-1.537388563E-1,5.812764645E0,7.908278942E0
7.032853441E0,-7.836493850E-2,5.799005508E0,7.876574039E0
7.082853441E0,-1.070788130E-1,5.815157413E0,8.094321251E0
7.132853441E0,-1.052841991E-1,5.819344521E0,7.871190071E0
7.182853441E0,-2.297109663E-1,5.815157413E0,7.950153351E0
7.232853441E0,-1.483550072E-1,5.851647854E0,7.904091358E0
7.282853441E0,-2.033899277E-1,5.833103180E0,7.988438606E0
7.332853441E0,-4.905286431E-2,5.762515068E0,7.963912010E0
7.382853441E0,-8.315058798E-2,5.836094379E0,7.996214867E0
7.432853441E0,-1.758724600E-1,5.780461311E0,7.962117195E0
7.482853441E0,-8.853443712E-2,5.822335720E0,8.015955925E0
7.532853441E0,-8.853443712E-2,5.822335720E0,8.015955925E0
7.582853441E0,-8.374879509E-2,5.796014786E0,7.859225750E0
7.632853441E0,-4.666004330E-2,5.836094379E0,8.005187988E0
7.682853441E0,-1.603191197E-1,5.781657696E0,8.087141991E0
7.732853441E0,-1.369891018E-1,5.785246849E0,7.966903210E0
7.782853441E0,-1.082752272E-1,5.837889194E0,7.896314621E0
7.832853441E0,-2.141576260E-1,5.831308842E0,8.021938324E0
7.882853441E0,-5.862415582E-2,5.839085579E0,7.948956966E0
7.932853441E0,-1.567298770E-1,5.801398277E0,7.895716667E0
7.982853441E0,-1.615155302E-2,5.818148136E0,7.874181271E0
8.032853441E0,-1.800599098E-1,5.811567783E0,8.029116631E0
8.082853441E0,-3.409772366E-2,5.803193092E0,7.928019524E0
8.132853441E0,-1.304088384E-1,5.848656654E0,7.919644833E0
8.182853441E0,-1.513460279E-1,5.804987907E0,7.919046402E0
8.232853441E0,-1.220339537E-1,5.792425632E0,7.992625713E0
8.282853441E0,-1.399801224E-1,5.783452511E0,7.998608112E0
8.332853441E0,-1.668993831E-1,5.823532104E0,7.981259823E0
8.382853441E0,-7.896314561E-2,5.742176056E0,7.920841217E0
8.432853441E0,-1.244267747E-1,5.816353798E0,7.960322857E0
8.482853441E0,-2.027917206E-1,5.799603939E0,8.200202942E0
8.532853441E0,-1.196411322E-3,5.782256126E0,7.894520283E0
8.582853441E0,-4.187439755E-2,5.864808083E0,7.786843300E0
8.632853441E0,-1.645065546E-1,5.760122299E0,8.039285660E0
8.682853441E0,-8.255238086E-2,5.819344521E0,8.127222061E0
8.732853441E0,-1.172483116E-1,5.791827202E0,7.898109436E0
8.782853441E0,-1.172483116E-1,5.791827202E0,7.898109436E0
8.782853441E0,-2.368894368E-1,5.861817360E0,7.868797302E0
8.882853441E0,-4.725824669E-2,5.779264927E0,7.942974567E0
8.932853441E0,-2.327020019E-1,5.760122299E0,8.011768341E0
8.982853441E0,-7.716853172E-2,5.778666496E0,7.974679470E0
9.032853441E0,-7.537391037E-2,5.781657696E0,7.973483086E0
9.082853441E0,-1.100698411E-1,5.802595139E0,7.992027760E0
9.132853441E0,-1.764706671E-1,5.815157413E0,8.049455643E0
9.182853441E0,-1.692921966E-1,5.789434433E0,7.910671711E0
9.232853441E0,-1.130608693E-1,5.824728489E0,7.893323898E0
9.282853441E0,-8.434699476E-2,5.782256126E0,7.998608112E0
9.332853441E0,-9.631111473E-2,5.815157413E0,8.005785942E0
9.382853441E0,-1.405783296E-1,5.784648895E0,8.020143509E0
9.432853441E0,-1.477568001E-1,5.788238049E0,7.860422611E0
9.482853441E0,-2.069791555E-1,5.796612740E0,8.086544037E0
9.532853441E0,-4.366901144E-2,5.758327484E0,8.130212784E0
9.582853441E0,-1.417747438E-1,5.818148136E0,7.875975609E0
9.632853441E0,-6.460621208E-2,5.812764645E0,7.882555962E0
9.682853441E0,-1.603191197E-1,5.758925915E0,7.996813297E0
9.732853441E0,-1.226321608E-1,5.813961029E0,8.065607071E0
9.782853441E0,-1.316052526E-1,5.806184292E0,8.073383331E0
9.832853441E0,-1.800599098E-1,5.824728489E0,7.882555962E0
9.882853441E0,-1.692921966E-1,5.824728489E0,7.958528042E0
9.932853441E0,-1.136590764E-1,5.791827202E0,7.953742504E0
9.982853441E0,-1.196411327E-1,5.782256126E0,7.986045361E0
1.003285344E1,-1.262213886E-1,5.791827202E0,8.094321251E0
1.008285344E1,-1.585244983E-1,5.802595139E0,7.934599876E0
1.013285344E1,-9.152546525E-2,5.813362598E0,7.872984886E0
1.018285344E1,-1.292124242E-1,5.813362598E0,8.019545555E0
1.023285344E1,-1.034895778E-1,5.825326920E0,8.007580757E0
1.028285344E1,-7.477571070E-2,5.782854080E0,7.943572998E0
1.033285344E1,-9.032905847E-2,5.815755367E0,7.922037601E0
1.038285344E1,-2.273181453E-2,5.785246849E0,7.965706348E0
1.043285344E1,-1.555334777E-1,5.772684574E0,8.023732185E0
1.048285344E1,-9.212367237E-2,5.805585861E0,7.978867054E0
1.053285344E1,-1.639083475E-1,5.832505226E0,8.073982239E0
1.058285344E1,-1.956132501E-1,5.790630817E0,7.948956966E0
1.063285344E1,-1.369891018E-1,5.848058701E0,7.930412292E0
1.068285344E1,-7.298108935E-2,5.787639618E0,7.862815380E0
1.073285344E1,-1.956132501E-1,5.763113499E0,8.073383331E0
1.078285344E1,-1.034895778E-1,5.861218929E0,8.112266541E0
1.083285344E1,-1.034895778E-1,5.861218929E0,8.112266541E0
1.088285344E1,-1.411765367E-1,5.769095421E0,7.854440212E0
1.093285344E1,-1.112662554E-1,5.912066460E0,7.788039684E0
1.098285344E1,-1.830509305E-1,5.908477306E0,7.862216949E0
1.103285344E1,3.290131316E-2,5.740979671E0,8.054839134E0
1.108285344E1,4.307080805E-2,5.682355404E0,7.938787460E0
1.113285344E1,-6.460621208E-2,5.718846321E0,8.190631866E0
1.118285344E1,7.896314561E-2,5.833701611E0,7.863413334E0
1.123285344E1,7.896314561E-2,5.833701611E0,7.863413334E0
1.128285344E1,-1.728814393E-1,5.757729530E0,7.966903210E0
1.133285344E1,-1.728814393E-1,5.757729530E0,7.966903210E0
1.138285344E1,1.914258115E-2,5.743372440E0,8.057231903E0
1.143285344E1,-3.349951655E-2,5.791228771E0,7.831708431E0
1.148285344E1,-3.349951655E-2,5.791228771E0,7.831708431E0
1.153285344E1,-1.794616925E-3,5.801398277E0,7.977670670E0
1.158285344E1,1.016949639E-1,5.788836002E0,7.783253670E0
1.163285344E1,2.991028363E-3,5.748157978E0,7.981259823E0
1.168285344E1,-1.393819153E-1,5.797809124E0,8.151150703E0
1.173285344E1,-1.393819153E-1,5.797809124E0,8.151150703E0
1.178285344E1,-5.682953820E-2,5.767300606E0,7.940581799E0
1.183285344E1,-5.682953820E-2,5.767300606E0,7.940581799E0
1.188285344E1,0.000000000E0,5.822933674E0,7.941180229E0
1.193285344E1,-2.811566554E-2,5.780461311E0,7.995018482E0
1.198285344E1,-2.811566554E-2,5.780461311E0,7.995018482E0
1.203285344E1,1.016949583E-2,5.813362598E0,7.859225750E0
1.208285344E1,-2.392822690E-2,5.810969830E0,7.943572998E0
1.213285344E1,-7.537391037E-2,5.792425632E0,8.053643227E0
1.218285344E1,5.264209956E-2,5.747560024E0,8.060821533E0
1.223285344E1,5.264209956E-2,5.747560024E0,8.060821533E0
1.228285344E1,-3.708875179E-2,5.717051506E0,7.987840176E0
1.233285344E1,1.196411345E-2,5.783452511E0,8.050053596E0
1.238285344E1,1.040877849E-1,5.734997749E0,7.945367813E0
1.243285344E1,6.939185411E-2,5.792425632E0,8.026124954E0
1.248285344E1,6.939185411E-2,5.792425632E0,8.026124954E0
1.253285344E1,6.699903309E-2,5.754738331E0,7.971688747E0
1.258285344E1,9.272187948E-2,5.772086620E0,8.005785942E0
1.263285344E1,-3.888336942E-2,5.698507309E0,8.155337334E0
1.268285344E1,-1.375873014E-2,5.833103180E0,8.026723862E0
1.273285344E1,-3.768695518E-2,5.833701611E0,7.813164234E0
1.278285344E1,2.093719877E-2,5.717051506E0,7.864609718E0
1.283285344E1,2.177468538E-1,5.667400360E0,8.255238533E0
1.288285344E1,5.264209956E-2,5.694319725E0,8.171489716E0
1.293285344E1,7.417750359E-2,5.770890236E0,7.850253105E0
1.298285344E1,-4.486542568E-2,5.894120216E0,7.836493969E0
1.303285344E1,-6.640082598E-2,5.834897995E0,8.041080475E0
1.308285344E1,8.075776696E-2,5.697310925E0,8.173283577E0
1.313285344E1,3.948157281E-2,5.743372440E0,7.946564198E0
1.318285344E1,5.324030295E-2,5.839683533E0,7.883154392E0
1.323285344E1,9.571290575E-3,5.757729530E0,7.968099594E0
1.328285344E1,5.024927482E-2,5.770890236E0,7.967501163E0
1.333285344E1,1.333998591E-1,5.691926956E0,8.148757935E0
1.338285344E1,3.230310604E-2,5.737988472E0,8.091927528E0
1.343285344E1,-1.734796353E-2,5.815755367E0,7.974679470E0
1.348285344E1,-1.734796353E-2,5.815755367E0,7.974679470E0
1.353285344E1,1.328016520E-1,5.674578667E0,8.109275818E0
1.358285344E1,1.328016520E-1,5.674578667E0,8.109275818E0
1.363285344E1,5.204389244E-2,5.792425632E0,8.038687706E0
1.368285344E1,1.316052489E-2,5.746363640E0,8.041080475E0
1.373285344E1,1.316052489E-2,5.746363640E0,8.041080475E0
1.378285344E1,-3.828516230E-2,5.840879917E0,7.962117195E0
1.383285344E1,-3.828516230E-2,5.840879917E0,7.962117195E0
1.388285344E1,1.716850251E-1,5.703890800E0,7.982456207E0
1.393285344E1,2.434697002E-1,5.758925915E0,7.973483086E0
1.398285344E1,2.434697002E-1,5.758925915E0,7.973483086E0
1.403285344E1,1.208375469E-1,5.749952793E0,7.940581799E0
1.408285344E1,1.208375469E-1,5.749952793E0,7.940581799E0
1.413285344E1,6.819544733E-2,5.790032387E0,8.065009117E0
1.418285344E1,4.486542568E-2,5.751747608E0,7.941180229E0
1.423285344E1,4.486542568E-2,5.751747608E0,7.941180229E0
1.428285344E1,1.286142170E-1,5.708078384E0,8.059026718E0
1.433285344E1,1.286142170E-1,5.708078384E0,8.059026718E0
1.438285344E1,7.716853172E-2,5.771488190E0,7.929215908E0
1.443285344E1,8.195417374E-2,5.828317642E0,7.806583881E0
1.448285344E1,8.195417374E-2,5.828317642E0,7.806583881E0
1.453285344E1,8.195417374E-2,5.828317642E0,7.806583881E0
1.458285344E1,8.195417374E-2,5.828317642E0,7.806583881E0
1.463285344E1,9.092725813E-2,5.776872158E0,7.837690353E0
1.468285344E1,1.298106313E-1,5.740979671E0,7.942376614E0
1.473285344E1,6.460621208E-2,5.733202934E0,8.228917122E0
1.478285344E1,1.058823988E-1,5.691328526E0,8.091927528E0
1.483285344E1,1.058823988E-1,5.691328526E0,8.091927528E0
1.488285344E1,6.879365444E-2,5.803193092E0,7.935198307E0
1.493285344E1,1.357926875E-1,5.731408596E0,8.049455643E0
1.498285344E1,1.357926875E-1,5.731408596E0,8.049455643E0
1.503285344E1,1.519442350E-1,5.849255085E0,7.938189030E0
1.508285344E1,7.298108935E-2,5.664409637E0,7.932207108E0
1.513285344E1,8.374879509E-2,5.605785370E0,8.096115112E0
1.518285344E1,8.374879509E-2,5.605785370E0,8.096115112E0
1.523285344E1,8.374879509E-2,5.605785370E0,8.096115112E0
1.528285344E1,1.328016520E-1,5.623731613E0,8.002795219E0
1.533285344E1,1.328016520E-1,5.623731613E0,8.002795219E0
1.538285344E1,1.130608693E-1,5.802595139E0,8.109873772E0
1.543285344E1,1.130608693E-1,5.802595139E0,8.109873772E0
1.548285344E1,1.130608693E-1,5.802595139E0,8.109873772E0
1.553285344E1,1.028913707E-1,5.755934715E0,8.278568268E0
1.558285344E1,1.028913707E-1,5.755934715E0,8.278568268E0
1.563285344E1,7.657032460E-2,5.749952793E0,7.870592117E0
1.568285344E1,8.733802289E-2,5.802595139E0,7.890930653E0
1.573285344E1,8.733802289E-2,5.802595139E0,7.890930653E0
1.578285344E1,1.932204217E-1,5.653043270E0,8.044071198E0
1.583285344E1,1.932204217E-1,5.653043270E0,8.044071198E0
1.588285344E1,1.495514214E-1,5.822933674E0,8.029714584E0
1.593285344E1,1.854437590E-1,5.746363640E0,7.799405575E0
1.598285344E1,1.854437590E-1,5.746363640E0,7.799405575E0
1.603285344E1,1.854437590E-1,5.746363640E0,7.799405575E0
1.608285344E1,1.854437590E-1,5.746363640E0,7.799405575E0
1.613285344E1,6.520441920E-2,5.785246849E0,7.927421570E0
1.618285344E1,3.122633696E-1,5.759523869E0,7.970492363E0
1.618285344E1,3.122633696E-1,5.759523869E0,7.970492363E0
1.628285344E1,1.208375469E-1,5.708078384E0,8.245068550E0
1.633285344E1,6.400800496E-2,5.839085579E0,7.990831375E0
1.638285344E1,7.357929647E-2,5.761318684E0,7.867600918E0
1.643285344E1,7.357929647E-2,5.761318684E0,7.867600918E0
1.648285344E1,3.026920557E-1,5.715256691E0,8.029116631E0
1.653285344E1,3.098705411E-1,5.583053589E0,8.159524918E0
1.658285344E1,1.710868180E-1,5.751747608E0,8.043473244E0
1.663285344E1,1.082752272E-1,5.774479389E0,8.090133667E0
1.668285344E1,3.170489892E-2,5.763711452E0,7.933403492E0
1.673285344E1,-3.290131316E-2,5.876772404E0,7.942974567E0
1.678285344E1,3.469592705E-2,5.885147095E0,7.893921852E0
1.683285344E1,2.255235314E-1,5.673980713E0,7.974679470E0
1.688285344E1,2.356930375E-1,5.697908878E0,7.990232944E0
1.693285344E1,1.130608693E-1,5.702694416E0,8.277371407E0
1.698285344E1,8.434699476E-2,5.713462353E0,8.096714020E0
1.703285344E1,8.434699476E-2,5.713462353E0,8.096714020E0
1.708285344E1,1.561316848E-1,5.769095421E0,8.093124390E0
1.713285344E1,1.561316848E-1,5.769095421E0,8.093124390E0
1.718285344E1,2.159522474E-1,5.651248932E0,8.035098076E0
1.723285344E1,2.177468538E-1,5.768496990E0,7.948358536E0
1.728285344E1,2.177468538E-1,5.768496990E0,7.948358536E0
1.733285344E1,5.922235921E-2,5.699703693E0,8.021938324E0
1.738285344E1,2.374876440E-1,5.778068542E0,7.876574039E0
1.743285344E1,2.147558331E-1,5.699105263E0,8.189435959E0
1.748285344E1,1.884347796E-1,5.721837044E0,7.884948730E0
1.753285344E1,1.884347796E-1,5.721837044E0,7.884948730E0
1.758285344E1,1.459621787E-1,5.722435474E0,8.034500122E0
1.763285344E1,1.328016520E-1,5.706882000E0,7.963313580E0
1.768285344E1,1.567298770E-1,5.715855122E0,8.014759064E0
1.773285344E1,2.039881349E-1,5.755934715E0,8.050651550E0
1.778285344E1,1.112662554E-1,5.702096462E0,8.103293419E0
1.783285344E1,1.764706671E-1,5.699105263E0,7.932207108E0
1.788285344E1,1.268195957E-1,5.719444275E0,8.006982803E0
1.793285344E1,1.268195957E-1,5.719444275E0,8.006982803E0
1.798285344E1,1.268195957E-1,5.719444275E0,8.006982803E0
1.803285344E1,3.589234129E-2,5.733202934E0,8.053044319E0
1.808285344E1,1.328016520E-1,5.736792088E0,8.032107353E0
1.813285344E1,9.930214286E-2,5.665606022E0,8.026124954E0
1.818285344E1,9.930214286E-2,5.665606022E0,8.026124954E0
1.823285344E1,9.930214286E-2,5.665606022E0,8.026124954E0
1.828285344E1,2.919243574E-1,5.663811207E0,7.972286701E0
1.833285344E1,2.919243574E-1,5.663811207E0,7.972286701E0
1.838285344E1,2.919243574E-1,5.663811207E0,7.972286701E0
1.843285344E1,6.460621208E-2,5.733801365E0,8.093722343E0
1.848285344E1,1.184447184E-1,5.745167255E0,8.073383331E0
1.853285344E1,1.184447184E-1,5.745167255E0,8.073383331E0
1.858285344E1,1.208375469E-1,5.700301647E0,7.958528042E0
1.863285344E1,1.806581169E-1,5.684150219E0,8.041678429E0
1.868285344E1,2.518445849E-1,5.667400360E0,8.029116631E0
1.873285344E1,1.531406492E-1,5.720640659E0,8.036294937E0
1.878285344E1,8.015955985E-2,5.657230854E0,8.056633949E0
1.883285344E1,8.075776696E-2,5.740979671E0,8.133204460E0
1.888285344E1,8.973085321E-3,5.708676815E0,8.017151833E0
1.893285344E1,8.853443712E-2,5.758327484E0,7.975277901E0
1.898285344E1,8.853443712E-2,5.758327484E0,7.975277901E0
1.903285344E1,8.853443712E-2,5.758327484E0,7.975277901E0
1.908285344E1,1.459621787E-1,5.675775528E0,8.129016876E0
1.913285344E1,8.255238086E-2,5.745765209E0,8.013563156E0
1.918285344E1,6.580262631E-2,5.734997749E0,7.974081516E0
1.923285344E1,-7.776673418E-3,5.786443233E0,7.911269665E0
1.928285344E1,1.393819153E-1,5.693721294E0,8.108677864E0
1.933285344E1,2.183450609E-1,5.711667538E0,7.982456207E0
1.938285344E1,1.950150430E-1,5.726024628E0,8.023134232E0
1.943285344E1,6.640082598E-2,5.718247890E0,7.996214867E0
1.948285344E1,9.810572863E-2,5.783452511E0,8.050651550E0
1.953285344E1,7.836493850E-2,5.719444275E0,7.940581799E0
1.958285344E1,8.793623000E-2,5.742176056E0,7.947162151E0
1.963285344E1,1.920240223E-1,5.681159019E0,8.115258217E0
1.968285344E1,1.453639716E-1,5.737390518E0,8.029116631E0
1.973285344E1,1.411765367E-1,5.725426197E0,8.069794655E0
1.978285344E1,1.668993831E-1,5.772086620E0,7.914260864E0
1.983285344E1,4.546362907E-2,5.752345562E0,8.032705307E0
1.988285344E1,1.543370634E-1,5.733202934E0,8.120043755E0
1.993285344E1,8.434699476E-2,5.709873199E0,7.954938889E0
1.998285344E1,1.824527234E-1,5.758327484E0,7.985447407E0
2.003285344E1,1.423729509E-1,5.744568825E0,8.088338852E0
2.008285344E1,1.423729509E-1,5.744568825E0,8.088338852E0
2.013285344E1,1.423729509E-1,5.744568825E0,8.088338852E0
2.018285344E1,1.423729509E-1,5.744568825E0,8.088338852E0
2.023285344E1,1.878365725E-1,5.724828243E0,8.048258781E0
2.028285344E1,2.117647976E-1,5.711069584E0,8.002795219E0
2.033285344E1,1.250249892E-1,5.767300606E0,7.905886173E0
2.038285344E1,2.111666054E-1,5.711069584E0,7.899903774E0
2.043285344E1,1.070788130E-1,5.736792088E0,8.166105270E0
2.048285344E1,1.076770201E-1,5.684150219E0,8.102695465E0
2.053285344E1,1.597209126E-1,5.703292847E0,8.049455643E0
2.058285344E1,9.990034252E-2,5.744568825E0,7.981259823E0
2.063285344E1,9.990034252E-2,5.744568825E0,7.981259823E0
2.068285344E1,7.417750359E-2,5.745765209E0,8.026124954E0
2.073285344E1,1.298106313E-1,5.734997749E0,7.959126472E0
2.078285344E1,8.913264424E-2,5.723033428E0,8.004590034E0
2.083285344E1,1.339980662E-1,5.717051506E0,8.065607071E0
2.088285344E1,1.268195957E-1,5.649454117E0,8.127820015E0
2.093285344E1,7.417750359E-2,5.709274769E0,7.926823139E0
2.098285344E1,7.417750359E-2,5.709274769E0,7.926823139E0
2.103285344E1,7.417750359E-2,5.709274769E0,7.926823139E0
2.108285344E1,7.417750359E-2,5.709274769E0,7.926823139E0
2.113285344E1,1.238285750E-1,5.758327484E0,8.051250458E0
2.118285344E1,2.153540403E-2,5.712265968E0,7.984251022E0
2.123285344E1,8.793623000E-2,5.748157978E0,7.905287743E0
2.128285344E1,1.788634956E-1,5.717649937E0,8.067999840E0
2.133285344E1,2.333002165E-2,5.732604980E0,8.035696983E0
2.138285344E1,1.046859920E-1,5.729613781E0,8.125427246E0
2.143285344E1,1.537388563E-1,5.682355404E0,7.913064480E0
2.148285344E1,8.673982322E-2,5.712265968E0,8.008777618E0
2.153285344E1,4.426721856E-2,5.738586903E0,8.066205025E0
2.158285344E1,1.016949583E-2,5.714658737E0,8.111668587E0
2.163285344E1,1.980060786E-1,5.756533146E0,7.840681553E0
2.168285344E1,1.333998591E-1,5.660820007E0,8.032107353E0
2.173285344E1,9.571290761E-2,5.743970871E0,8.117053032E0
2.178285344E1,-9.571290575E-3,5.756533146E0,8.118248940E0
2.183285344E1,3.708875179E-2,5.727818966E0,7.923233986E0
2.188285344E1,-5.443671346E-2,5.737390518E0,8.008178711E0
2.193285344E1,1.136590764E-1,5.666802406E0,8.195417404E0
2.198285344E1,1.980060786E-1,5.649454117E0,8.097909927E0
2.203285344E1,1.501496136E-1,5.737988472E0,7.975875854E0
2.208285344E1,1.064806059E-1,5.703890800E0,8.026723862E0
2.213285344E1,4.187439755E-2,5.761318684E0,7.965706348E0
2.218285344E1,-1.794617064E-2,5.716453075E0,8.088936806E0
2.223285344E1,1.734796464E-1,5.718247890E0,7.942376614E0
2.228285344E1,4.845465720E-2,5.721239090E0,8.097311974E0
2.233285344E1,1.196411327E-1,5.679364681E0,8.102695465E0
2.238285344E1,1.016949639E-1,5.712863922E0,8.002197266E0
2.243285344E1,7.776673883E-2,5.709873199E0,8.032705307E0
2.248285344E1,1.136590764E-1,5.747560024E0,7.972885132E0
2.253285344E1,6.759724021E-2,5.706283569E0,8.085946083E0
2.258285344E1,1.411765367E-1,5.699105263E0,8.011768341E0
2.263285344E1,1.082752272E-1,5.706283569E0,8.051250458E0
2.268285344E1,1.064806059E-1,5.721239090E0,7.987242222E0
2.273285344E1,1.034895778E-1,5.711667538E0,8.051848412E0
2.278285344E1,1.405783296E-1,5.705087185E0,7.995616913E0
2.283285344E1,3.110669367E-2,5.745167255E0,8.035696983E0
2.288285344E1,9.451649338E-2,5.734399319E0,8.050053596E0
2.293285344E1,6.640082598E-2,5.709274769E0,7.978867054E0
2.298285344E1,2.333002165E-2,5.727818966E0,7.962117195E0
2.303285344E1,1.328016520E-1,5.681757450E0,8.182256699E0
2.308285344E1,8.195417374E-2,5.668596745E0,8.040482521E0
2.313285344E1,1.088734269E-1,5.723033428E0,7.957930088E0
2.318285344E1,1.262213886E-1,5.706283569E0,8.014759064E0
2.323285344E1,1.172483116E-1,5.687141418E0,8.083553314E0
2.328285344E1,1.172483116E-1,5.687141418E0,8.083553314E0
2.333285344E1,1.507478207E-1,5.718247890E0,8.016553879E0
2.338285344E1,7.836493850E-2,5.738586903E0,7.947760582E0
2.343285344E1,1.483550072E-1,5.717649937E0,8.054839134E0
2.348285344E1,1.226321608E-1,5.679962635E0,7.987242222E0
2.353285344E1,4.426721856E-2,5.738586903E0,8.094321251E0
2.358285344E1,8.554340899E-2,5.724828243E0,8.018348694E0
2.363285344E1,8.434699476E-2,5.717649937E0,7.930412292E0
2.368285344E1,1.262213886E-1,5.719444275E0,7.999206066E0
2.373285344E1,7.238288224E-2,5.682355404E0,8.128418922E0
2.378285344E1,2.602194548E-1,5.665606022E0,8.062017441E0
2.383285344E1,2.273181528E-1,5.700900078E0,7.980661869E0
2.388285344E1,4.546362907E-2,5.723631859E0,7.960920811E0
2.393285344E1,1.070788130E-1,5.734997749E0,8.028517723E0
2.398285344E1,7.238288224E-2,5.693721294E0,8.115856171E0
2.403285344E1,5.862415582E-2,5.724828243E0,7.925028801E0
2.408285344E1,1.190429255E-1,5.697908878E0,8.054241180E0
2.413285344E1,1.471585929E-1,5.703292847E0,8.080561638E0
2.418285344E1,1.597209126E-1,5.643472195E0,7.990232944E0
2.423285344E1,1.998006850E-1,5.702096462E0,7.909475327E0
2.428285344E1,1.178465188E-1,5.758327484E0,8.056035995E0
2.433285344E1,1.328016520E-1,5.714658737E0,7.982456207E0
2.438285344E1,1.704886109E-1,5.699703693E0,7.974081516E0
2.443285344E1,1.088734269E-1,5.724828243E0,7.953742504E0
2.448285344E1,1.674975902E-1,5.728417397E0,8.038089752E0
2.453285344E1,1.573280841E-1,5.685346603E0,7.989036560E0
2.458285344E1,1.573280841E-1,5.685346603E0,7.989036560E0
2.463285344E1,1.531406492E-1,5.673980713E0,8.066802979E0
2.468285344E1,1.531406492E-1,5.673980713E0,8.066802979E0
2.473285344E1,1.794617027E-1,5.701498032E0,7.954938889E0
2.478285344E1,1.435693651E-1,5.728417397E0,7.945367813E0
2.483285344E1,1.435693651E-1,5.728417397E0,7.945367813E0
2.488285344E1,1.435693651E-1,5.728417397E0,7.945367813E0
2.493285344E1,1.489532143E-1,5.714060307E0,8.033902168E0
2.498285344E1,1.405783296E-1,5.665007591E0,8.001000404E0
2.503285344E1,1.794617027E-1,5.669195175E0,7.941778183E0
2.508285344E1,1.794617027E-1,5.669195175E0,7.941778183E0
2.513285344E1,1.770688742E-1,5.685346603E0,8.170292854E0
2.518285344E1,1.770688742E-1,5.685346603E0,8.170292854E0
2.523285344E1,1.118644550E-1,5.732604980E0,7.918448448E0
2.528285344E1,2.446661144E-1,5.672784328E0,8.017750740E0
2.533285344E1,2.446661144E-1,5.672784328E0,8.017750740E0
2.538285344E1,1.962114573E-1,5.702694416E0,7.998009682E0
2.543285344E1,1.860419661E-1,5.685346603E0,7.904091358E0
2.548285344E1,1.776670814E-1,5.684150219E0,7.935796261E0
2.553285344E1,1.262213886E-1,5.702096462E0,8.166703224E0
2.558285344E1,2.195414752E-1,5.682953835E0,7.968099594E0
2.563285344E1,6.819544733E-2,5.707480431E0,7.934599876E0
2.568285344E1,2.249253243E-1,5.712265968E0,7.996214867E0
2.573285344E1,1.423729509E-1,5.680561066E0,8.035098076E0
2.578285344E1,1.555334777E-1,5.685346603E0,8.088338852E0
2.583285344E1,2.171486616E-1,5.675177097E0,8.045268059E0
2.588285344E1,1.435693651E-1,5.704489231E0,7.898707390E0
2.593285344E1,1.435693651E-1,5.704489231E0,7.898707390E0
2.598285344E1,1.435693651E-1,5.704489231E0,7.898707390E0
2.603285344E1,1.435693651E-1,5.704489231E0,7.898707390E0
2.608285344E1,1.998006850E-1,5.676971912E0,7.939983845E0
2.613285344E1,1.740778536E-1,5.709873199E0,8.018348694E0
2.618285344E1,1.740778536E-1,5.709873199E0,8.018348694E0
2.623285344E1,1.740778536E-1,5.709873199E0,8.018348694E0
2.628285344E1,1.740778536E-1,5.709873199E0,8.018348694E0
2.633285344E1,1.740778536E-1,5.709873199E0,8.018348694E0
2.638285344E1,2.524427772E-1,5.680561066E0,7.955537319E0
2.643285344E1,2.662015259E-1,5.686542988E0,7.911868095E0
2.648285344E1,2.285145670E-1,5.727221012E0,8.043473244E0
2.653285344E1,2.195414752E-1,5.701498032E0,8.020741463E0
2.658285344E1,1.579262912E-1,5.708676815E0,7.987840176E0
2.663285344E1,1.250249892E-1,5.729015827E0,7.928617954E0
2.668285344E1,2.231307179E-1,5.717051506E0,8.041678429E0
2.673285344E1,1.794617027E-1,5.681757450E0,8.099106789E0
2.678285344E1,1.800599098E-1,5.709274769E0,7.960322857E0
2.683285344E1,2.303091735E-1,5.675177097E0,8.065607071E0
2.688285344E1,2.500499785E-1,5.703292847E0,7.959724426E0
2.693285344E1,2.015953064E-1,5.717649937E0,7.980661869E0
2.698285344E1,1.603191197E-1,5.711069584E0,8.002197266E0
2.703285344E1,3.708875179E-2,5.705685616E0,8.039883614E0
2.708285344E1,1.417747438E-1,5.718247890E0,8.143971443E0
2.713285344E1,1.417747438E-1,5.718247890E0,8.143971443E0
2.718285344E1,1.812563092E-1,5.716453075E0,7.965706348E0
2.723285344E1,1.938186288E-1,5.737988472E0,8.122436523E0
2.728285344E1,1.651047617E-1,5.672784328E0,7.938787460E0
2.733285344E1,1.549352705E-1,5.718247890E0,7.966304779E0
2.738285344E1,1.944168359E-1,5.685945034E0,8.136195183E0
2.743285344E1,1.728814393E-1,5.696114540E0,7.916055679E0
2.748285344E1,1.567298770E-1,5.728417397E0,7.877770424E0
2.753285344E1,2.482553422E-1,5.705087185E0,8.054839134E0
2.758285344E1,2.482553422E-1,5.705087185E0,8.054839134E0
2.763285344E1,2.404786795E-1,5.708078384E0,7.981858253E0
2.768285344E1,1.998006850E-1,5.713462353E0,7.975277901E0
2.773285344E1,2.177468538E-1,5.710471153E0,7.999206066E0
2.778285344E1,1.154536903E-1,5.693721294E0,8.021938324E0
2.783285344E1,1.728814393E-1,5.715256691E0,8.049455643E0
2.788285344E1,1.357926875E-1,5.709274769E0,8.026723862E0
2.793285344E1,1.788634956E-1,5.707480431E0,7.889136314E0
2.798285344E1,1.190429255E-1,5.694319725E0,8.136195183E0
2.803285344E1,1.902294010E-1,5.675177097E0,8.029714584E0
2.808285344E1,1.806581169E-1,5.691328526E0,7.950751305E0
2.813285344E1,1.878365725E-1,5.675177097E0,8.064410210E0
2.818285344E1,1.076770201E-1,5.723631859E0,8.042875290E0
2.823285344E1,1.585244983E-1,5.666203976E0,8.119445801E0
2.828285344E1,1.603191197E-1,5.706283569E0,7.891529083E0
2.833285344E1,1.764706671E-1,5.666203976E0,8.012965202E0
2.838285344E1,1.818545163E-1,5.708078384E0,8.137989998E0
2.843285344E1,2.051845491E-1,5.669195175E0,7.901100159E0
2.848285344E1,2.404786795E-1,5.662016392E0,7.936394691E0
2.853285344E1,2.315055877E-1,5.695516109E0,7.994420528E0
2.858285344E1,1.064806059E-1,5.688337803E0,8.103892326E0
2.863285344E1,1.806581169E-1,5.673980713E0,8.138587952E0
2.868285344E1,1.519442350E-1,5.699703693E0,7.830512047E0
2.873285344E1,1.854437590E-1,5.704489231E0,7.969295979E0
2.878285344E1,1.818545163E-1,5.629115105E0,8.200801849E0
2.883285344E1,2.123630047E-1,5.678168297E0,8.094919205E0
2.888285344E1,2.446661144E-1,5.668596745E0,8.018348694E0
2.893285344E1,1.537388563E-1,5.718247890E0,7.877171993E0
2.898285344E1,1.704886109E-1,5.705087185E0,8.057231903E0
2.903285344E1,1.704886109E-1,5.705087185E0,8.057231903E0
2.908285344E1,1.501496136E-1,5.711667538E0,7.938189030E0
2.913285344E1,2.410768867E-1,5.682953835E0,8.011170387E0
2.918285344E1,1.704886109E-1,5.712265968E0,8.062017441E0
2.923285344E1,1.704886109E-1,5.712265968E0,8.062017441E0
2.928285344E1,1.704886109E-1,5.712265968E0,8.062017441E0
2.933285344E1,1.704886109E-1,5.712265968E0,8.062017441E0
2.938285344E1,1.483550072E-1,5.702694416E0,8.039285660E0
2.943285344E1,2.356930375E-1,5.687739372E0,8.026124954E0
2.948285344E1,1.974078715E-1,5.702694416E0,7.930412292E0
2.953285344E1,2.051845491E-1,5.683551788E0,8.063214302E0
2.958285344E1,1.950150430E-1,5.643472195E0,8.163712502E0
2.963285344E1,2.003988922E-1,5.660820007E0,7.969893932E0
2.968285344E1,2.225325108E-1,5.709873199E0,7.966903210E0
2.973285344E1,1.818545163E-1,5.682355404E0,8.044670105E0
2.978285344E1,1.818545163E-1,5.682355404E0,8.044670105E0
2.983285344E1,2.590230405E-1,5.673980713E0,8.003992081E0
2.988285344E1,2.590230405E-1,5.673980713E0,8.003992081E0
2.993285344E1,2.590230405E-1,5.673980713E0,8.003992081E0
2.998285344E1,1.639083475E-1,5.683551788E0,8.012366295E0
3.003285344E1,1.639083475E-1,5.683551788E0,8.012366295E0
3.008285344E1,3.074777126E-1,5.638686657E0,8.019545555E0
3.013285344E1,2.368894368E-1,5.654240131E0,8.037490845E0
3.018285344E1,2.249253243E-1,5.715256691E0,8.118846893E0
3.023285344E1,2.249253243E-1,5.715256691E0,8.118846893E0
3.028285344E1,1.740778536E-1,5.711069584E0,7.814958572E0
3.033285344E1,2.093719840E-1,5.693123341E0,8.005187988E0
3.038285344E1,1.633101404E-1,5.623731613E0,8.181060791E0
3.043285344E1,2.817548811E-1,5.635695457E0,8.075776100E0
3.048285344E1,2.063809484E-1,5.676971912E0,8.000402451E0
3.053285344E1,2.213360965E-1,5.687739372E0,7.922635555E0
3.058285344E1,2.213360965E-1,5.687739372E0,7.922635555E0
3.063285344E1,1.998006850E-1,5.688935757E0,8.146365166E0
3.068285344E1,1.830509305E-1,5.691926956E0,7.890332699E0
3.073285344E1,2.715853751E-1,5.676373482E0,8.056633949E0
3.078285344E1,2.159522474E-1,5.688935757E0,8.059026718E0
3.083285344E1,2.327020019E-1,5.673980713E0,8.008178711E0
3.088285344E1,2.542374134E-1,5.648257732E0,7.968697548E0
3.093285344E1,1.627119333E-1,5.691328526E0,8.126026154E0
3.098285344E1,1.375873089E-1,5.680561066E0,8.051250458E0
3.103285344E1,2.333002090E-1,5.663212776E0,7.909475327E0
3.108285344E1,1.459621787E-1,5.710471153E0,7.905287743E0
3.113285344E1,2.997010350E-1,5.647061348E0,8.165507317E0
3.118285344E1,2.105683982E-1,5.665007591E0,8.033902168E0
3.123285344E1,2.279163599E-1,5.670391560E0,8.059026718E0
3.128285344E1,2.344966233E-1,5.654838085E0,7.922037601E0
3.133285344E1,2.488535494E-1,5.682355404E0,7.959724426E0
3.138285344E1,2.291127741E-1,5.651248932E0,8.112266541E0
3.143285344E1,1.567298770E-1,5.636891842E0,8.070990562E0
3.148285344E1,2.925225794E-1,5.670391560E0,7.960920811E0
3.153285344E1,2.404786795E-1,5.664409637E0,8.022536278E0
3.158285344E1,1.441675574E-1,5.710471153E0,8.039285660E0
3.163285344E1,2.434697002E-1,5.632704735E0,8.019545555E0
3.168285344E1,1.992024779E-1,5.669793129E0,8.063214302E0
3.173285344E1,2.285145670E-1,5.676971912E0,8.112865448E0
3.178285344E1,2.494517565E-1,5.614160061E0,8.081160545E0
3.183285344E1,1.525424421E-1,5.664409637E0,7.910671711E0
3.188285344E1,1.220339537E-1,5.671587944E0,8.099704742E0
3.193285344E1,2.787638307E-1,5.604588985E0,8.111070633E0
3.198285344E1,1.363908947E-1,5.638686657E0,8.023134232E0
3.203285344E1,2.985046208E-1,5.669195175E0,8.119445801E0
3.208285344E1,2.530409992E-1,5.662614822E0,7.958528042E0
3.213285344E1,2.464607358E-1,5.688935757E0,7.978269100E0
3.218285344E1,2.033899277E-1,5.653043270E0,8.121838570E0
3.223285344E1,1.998006850E-1,5.681757450E0,7.983054638E0
3.228285344E1,2.464607358E-1,5.656034470E0,8.112266541E0
3.233285344E1,1.692921966E-1,5.668596745E0,8.088936806E0
3.238285344E1,2.368894368E-1,5.684150219E0,8.024929047E0
3.243285344E1,2.255235314E-1,5.660222054E0,7.973483086E0
3.248285344E1,2.560320199E-1,5.703292847E0,8.109873772E0
3.253285344E1,2.374876440E-1,5.650650501E0,8.017151833E0
3.258285344E1,1.968096644E-1,5.688337803E0,8.041080475E0
3.263285344E1,3.649054468E-2,5.712863922E0,8.010572433E0
3.268285344E1,1.854437590E-1,5.691926956E0,8.062616348E0
3.273285344E1,2.237289101E-1,5.647061348E0,8.085946083E0
3.278285344E1,1.716850251E-1,5.649454117E0,8.112266541E0
3.283285344E1,2.979064286E-1,5.715256691E0,7.997411251E0
3.288285344E1,2.470589429E-1,5.690730572E0,7.947760582E0
3.293285344E1,2.213360965E-1,5.666802406E0,8.027919769E0
3.298285344E1,1.070788130E-1,5.740381718E0,7.988438606E0
3.303285344E1,2.171486616E-1,5.661418438E0,8.158329010E0
3.308285344E1,1.393819153E-1,5.672185898E0,7.971688747E0
3.313285344E1,2.183450609E-1,5.715256691E0,7.977072716E0
3.318285344E1,2.685943544E-1,5.684150219E0,7.992027760E0
3.323285344E1,2.237289101E-1,5.680561066E0,8.046463966E0
3.328285344E1,1.704886109E-1,5.666203976E0,7.961519241E0
3.333285344E1,1.621137410E-1,5.708078384E0,8.047062874E0
3.338285344E1,1.262213886E-1,5.676971912E0,8.039883614E0
3.343285344E1,1.830509305E-1,5.661418438E0,8.017151833E0
3.348285344E1,1.513460279E-1,5.667998791E0,8.068597794E0
3.353285344E1,3.002992272E-1,5.642275810E0,8.091927528E0
3.358285344E1,1.842473447E-1,5.648257732E0,8.052446365E0
3.363285344E1,2.015953064E-1,5.690730572E0,8.027321815E0
3.368285344E1,2.512463629E-1,5.678168297E0,7.901698589E0
3.373285344E1,1.501496136E-1,5.665007591E0,8.059026718E0
3.378285344E1,1.501496136E-1,5.665007591E0,8.059026718E0
3.383285344E1,1.734796464E-1,5.682953835E0,7.980661869E0
3.388285344E1,1.734796464E-1,5.682953835E0,7.980661869E0
3.393285344E1,1.734796464E-1,5.682953835E0,7.980661869E0
3.398285344E1,2.871387303E-1,5.666802406E0,7.913064480E0
3.403285344E1,1.974078715E-1,5.662016392E0,8.152944565E0
3.408285344E1,2.853440940E-1,5.666203976E0,8.157731056E0
3.413285344E1,2.105683982E-1,5.666802406E0,7.947760582E0
3.418285344E1,1.441675574E-1,5.684748173E0,8.054839134E0
3.423285344E1,2.572284341E-1,5.671587944E0,8.153543472E0
3.428285344E1,1.710868180E-1,5.644070625E0,8.014759064E0
3.433285344E1,2.410768867E-1,5.712863922E0,8.033902168E0
3.438285344E1,2.362912297E-1,5.696712494E0,8.057231903E0
3.443285344E1,1.435693651E-1,5.645864964E0,8.047660828E0
3.448285344E1,2.733799815E-1,5.690132141E0,8.038089752E0
3.453285344E1,2.733799815E-1,5.690132141E0,8.038089752E0
3.458285344E1,1.758724600E-1,5.697908878E0,7.992027760E0
3.463285344E1,2.117647976E-1,5.642275810E0,8.117053032E0
3.468285344E1,2.919243574E-1,5.659623623E0,8.003393173E0
3.473285344E1,2.207378894E-1,5.658427238E0,8.115258217E0
3.478285344E1,2.703889608E-1,5.662016392E0,8.023134232E0
3.483285344E1,2.703889608E-1,5.662016392E0,8.023134232E0
3.488285344E1,2.703889608E-1,5.662016392E0,8.023134232E0
3.493285344E1,2.009970993E-1,5.675177097E0,7.936394691E0
3.498285344E1,2.159522474E-1,5.693123341E0,8.081758499E0
3.503285344E1,1.465603858E-1,5.664409637E0,8.132605553E0
3.508285344E1,2.757728100E-1,5.669793129E0,7.996214867E0
3.513285344E1,2.356930375E-1,5.653641701E0,8.063214302E0
3.518285344E1,2.356930375E-1,5.653641701E0,8.063214302E0
3.523285344E1,2.356930375E-1,5.653641701E0,8.063214302E0
3.528285344E1,1.627119333E-1,5.690730572E0,7.971090317E0
3.533285344E1,2.237289101E-1,5.697908878E0,8.015955925E0
3.538285344E1,2.410768867E-1,5.646463394E0,8.071588516E0
3.543285344E1,2.309073806E-1,5.649454117E0,8.066205025E0
3.548285344E1,2.309073806E-1,5.649454117E0,8.066205025E0
3.553285344E1,2.560320199E-1,5.662016392E0,8.088936806E0
3.558285344E1,2.249253243E-1,5.663212776E0,7.940581799E0
3.563285344E1,2.249253243E-1,5.663212776E0,7.940581799E0
3.568285344E1,2.249253243E-1,5.663212776E0,7.940581799E0
3.573285344E1,2.578266263E-1,5.627918720E0,8.103293419E0
3.578285344E1,2.392822653E-1,5.685945034E0,7.996214867E0
3.583285344E1,3.140579760E-1,5.633901119E0,8.079365730E0
3.588285344E1,3.140579760E-1,5.633901119E0,8.079365730E0
3.593285344E1,3.140579760E-1,5.633901119E0,8.079365730E0
3.598285344E1,2.895315289E-1,5.650650501E0,8.178069115E0
3.603285344E1,1.824527234E-1,5.696114540E0,7.907680511E0
3.608285344E1,2.626122832E-1,5.665606022E0,7.918448448E0
3.613285344E1,2.626122832E-1,5.665606022E0,7.918448448E0
3.618285344E1,3.098705411E-1,5.633901119E0,8.263612747E0
3.623285344E1,3.613162339E-1,5.577669621E0,8.033902168E0
3.628285344E1,3.008974493E-1,5.648856163E0,8.084151268E0
3.633285344E1,3.008974493E-1,5.648856163E0,8.084151268E0
3.638285344E1,3.080759048E-1,5.627320766E0,8.072187424E0
3.643285344E1,3.080759048E-1,5.627320766E0,8.072187424E0
3.648285344E1,2.787638307E-1,5.649454117E0,8.113463402E0
3.653285344E1,3.451646566E-1,5.615954876E0,7.966903210E0
3.658285344E1,2.500499785E-1,5.576473236E0,8.129016876E0
3.663285344E1,3.278166950E-1,5.630311489E0,8.225327492E0
3.668285344E1,2.141576260E-1,5.584847927E0,8.158329010E0
3.673285344E1,2.291127741E-1,5.693123341E0,8.053643227E0
3.678285344E1,2.673979402E-1,5.617151260E0,7.990232944E0
3.683285344E1,2.811566591E-1,5.636293888E0,7.998009682E0
3.688285344E1,2.859423161E-1,5.586044312E0,8.260622025E0
3.693285344E1,3.326023519E-1,5.622535229E0,8.087740898E0
3.698285344E1,3.337987661E-1,5.591428280E0,8.063812256E0
3.703285344E1,1.944168359E-1,5.648257732E0,8.009973526E0
3.708285344E1,2.428714931E-1,5.631507874E0,8.226524353E0
3.713285344E1,2.733799815E-1,5.616552830E0,8.076375008E0
3.718285344E1,2.739782035E-1,5.626124382E0,7.977072716E0
3.723285344E1,3.032902777E-1,5.674578667E0,8.085946083E0
3.728285344E1,2.733799815E-1,5.575874805E0,8.117053032E0
3.733285344E1,4.007977843E-1,5.571089268E0,8.001000404E0
3.738285344E1,2.171486616E-1,5.609972477E0,8.190631866E0
3.743285344E1,3.122633696E-1,5.647659779E0,8.193024635E0
3.748285344E1,2.422732860E-1,5.665007591E0,7.915457249E0
3.753285344E1,1.812563092E-1,5.664409637E0,8.115258217E0
3.758285344E1,1.734796464E-1,5.639284611E0,8.222934723E0
3.763285344E1,2.404786795E-1,5.600999832E0,8.041678429E0
3.768285344E1,2.997010350E-1,5.646463394E0,7.950751305E0
3.773285344E1,2.183450609E-1,5.611168861E0,8.213961601E0
3.778285344E1,2.183450609E-1,5.611168861E0,8.213961601E0
3.783285344E1,2.338984162E-1,5.620141983E0,7.935796261E0
3.788285344E1,2.338984162E-1,5.620141983E0,7.935796261E0
3.793285344E1,2.380858511E-1,5.641677380E0,8.133204460E0
3.798285344E1,2.380858511E-1,5.641677380E0,8.133204460E0
3.803285344E1,2.380858511E-1,5.641677380E0,8.133204460E0
3.808285344E1,3.008974493E-1,5.621936798E0,7.953742504E0
3.813285344E1,3.008974493E-1,5.621936798E0,7.953742504E0
3.818285344E1,2.721835673E-1,5.609374523E0,8.163712502E0
3.823285344E1,2.721835673E-1,5.609374523E0,8.163712502E0
3.828285344E1,2.721835673E-1,5.609374523E0,8.163712502E0
3.833285344E1,2.691925466E-1,5.636891842E0,8.136793137E0
3.838285344E1,2.691925466E-1,5.636891842E0,8.136793137E0
3.843285344E1,3.128615618E-1,5.654838085E0,8.049455643E0
3.848285344E1,3.128615618E-1,5.654838085E0,8.049455643E0
3.853285344E1,2.841476798E-1,5.633901119E0,8.056035995E0
3.858285344E1,3.930211067E-1,5.618347645E0,8.163114548E0
3.863285344E1,3.930211067E-1,5.618347645E0,8.163114548E0
3.868285344E1,3.930211067E-1,5.618347645E0,8.163114548E0
3.873285344E1,3.930211067E-1,5.618347645E0,8.163114548E0
3.878285344E1,3.930211067E-1,5.618347645E0,8.163114548E0
3.883285344E1,3.930211067E-1,5.618347645E0,8.163114548E0
3.888285344E1,3.960121572E-1,5.648257732E0,8.104490280E0
3.888285344E1,3.960121572E-1,5.648257732E0,8.104490280E0
3.898285344E1,3.960121572E-1,5.648257732E0,8.104490280E0
3.903285344E1,3.960121572E-1,5.648257732E0,8.104490280E0
3.908285344E1,3.960121572E-1,5.648257732E0,8.104490280E0
3.913285344E1,3.960121572E-1,5.648257732E0,8.104490280E0
3.918285344E1,3.038884699E-1,5.614758492E0,8.103293419E0
3.923285344E1,2.027917206E-1,5.603990555E0,8.051848412E0
3.928285344E1,2.027917206E-1,5.603990555E0,8.051848412E0
3.933285344E1,2.027917206E-1,5.603990555E0,8.051848412E0
3.938285344E1,2.027917206E-1,5.603990555E0,8.051848412E0
3.943285344E1,2.027917206E-1,5.603990555E0,8.051848412E0
3.948285344E1,2.027917206E-1,5.603990555E0,8.051848412E0
3.953285344E1,2.027917206E-1,5.603990555E0,8.051848412E0
3.958285344E1,2.027917206E-1,5.603990555E0,8.051848412E0
3.963285344E1,2.027917206E-1,5.603990555E0,8.051848412E0
3.968285344E1,2.027917206E-1,5.603990555E0,8.051848412E0
3.973285344E1,2.027917206E-1,5.603990555E0,8.051848412E0
3.978285344E1,2.027917206E-1,5.603990555E0,8.051848412E0
3.983285344E1,3.326023519E-1,5.635097504E0,7.972286701E0
3.988285344E1,3.385843933E-1,5.593821049E0,8.139185905E0
3.993285344E1,3.912265003E-1,5.547161102E0,8.228917122E0
3.998285344E1,3.912265003E-1,5.547161102E0,8.228917122E0
4.003285344E1,3.912265003E-1,5.547161102E0,8.228917122E0
4.008285344E1,3.912265003E-1,5.547161102E0,8.228917122E0
4.013285344E1,3.912265003E-1,5.547161102E0,8.228917122E0
4.018285344E1,3.409772217E-1,5.578267574E0,8.261219978E0
4.023285344E1,3.409772217E-1,5.578267574E0,8.261219978E0
4.028285344E1,3.409772217E-1,5.578267574E0,8.261219978E0
4.033285344E1,3.409772217E-1,5.578267574E0,8.261219978E0
4.038285344E1,3.409772217E-1,5.578267574E0,8.261219978E0
4.043285344E1,3.702892959E-1,5.592026711E0,8.190033913E0
4.048285344E1,3.702892959E-1,5.592026711E0,8.190033913E0
4.053285344E1,3.702892959E-1,5.592026711E0,8.190033913E0
4.058285344E1,3.702892959E-1,5.592026711E0,8.190033913E0
4.063285344E1,3.702892959E-1,5.592026711E0,8.190033913E0
4.068285344E1,4.241278172E-1,5.566303730E0,8.085946083E0
4.073285344E1,4.241278172E-1,5.566303730E0,8.085946083E0
4.078285344E1,4.241278172E-1,5.566303730E0,8.085946083E0
4.083285344E1,4.241278172E-1,5.566303730E0,8.085946083E0
4.088285344E1,3.810569942E-1,5.601597786E0,8.020143509E0
4.093285344E1,3.403790295E-1,5.584249973E0,8.155936241E0
4.098285344E1,3.403790295E-1,5.584249973E0,8.155936241E0
4.103285344E1,3.403790295E-1,5.584249973E0,8.155936241E0
4.108285344E1,3.403790295E-1,5.584249973E0,8.155936241E0
4.113285344E1,3.403790295E-1,5.584249973E0,8.155936241E0
4.118285344E1,3.523431420E-1,5.590830326E0,8.184649467E0
4.123285344E1,3.523431420E-1,5.590830326E0,8.184649467E0
4.128285344E1,3.523431420E-1,5.590830326E0,8.184649467E0
4.133285344E1,3.750749528E-1,5.584847927E0,8.118846893E0
4.138285344E1,3.750749528E-1,5.584847927E0,8.118846893E0
4.143285344E1,3.565305769E-1,5.595017433E0,8.176873207E0
4.148285344E1,3.565305769E-1,5.595017433E0,8.176873207E0
4.153285344E1,3.565305769E-1,5.595017433E0,8.176873207E0
4.158285344E1,3.565305769E-1,5.595017433E0,8.176873207E0
4.163285344E1,3.565305769E-1,5.595017433E0,8.176873207E0
4.168285344E1,3.541377485E-1,5.538786411E0,8.134400368E0
4.173285344E1,3.541377485E-1,5.538786411E0,8.134400368E0
4.178285344E1,3.541377485E-1,5.538786411E0,8.134400368E0
4.183285344E1,3.541377485E-1,5.538786411E0,8.134400368E0
4.188285344E1,3.541377485E-1,5.538786411E0,8.134400368E0
4.193285344E1,3.786641955E-1,5.531009674E0,8.178069115E0
4.198285344E1,3.786641955E-1,5.531009674E0,8.178069115E0
4.203285344E1,3.786641955E-1,5.531009674E0,8.178069115E0
4.208285344E1,3.786641955E-1,5.531009674E0,8.178069115E0
4.213285344E1,3.786641955E-1,5.531009674E0,8.178069115E0
4.218285344E1,4.289134443E-1,5.502893925E0,8.137989998E0
4.223285344E1,4.289134443E-1,5.502893925E0,8.137989998E0
4.228285344E1,4.289134443E-1,5.502893925E0,8.137989998E0
4.233285344E1,4.289134443E-1,5.502893925E0,8.137989998E0
4.238285344E1,4.289134443E-1,5.502893925E0,8.137989998E0
4.243285344E1,4.301098585E-1,5.522634506E0,8.145766258E0
4.248285344E1,4.301098585E-1,5.522634506E0,8.145766258E0
4.253285344E1,4.301098585E-1,5.522634506E0,8.145766258E0
4.258285344E1,4.301098585E-1,5.522634506E0,8.145766258E0
4.263285344E1,4.301098585E-1,5.522634506E0,8.145766258E0
4.268285344E1,3.008974493E-1,5.611168861E0,8.193024635E0
4.273285344E1,3.008974493E-1,5.611168861E0,8.193024635E0
4.278285344E1,3.008974493E-1,5.611168861E0,8.193024635E0
4.283285344E1,3.008974493E-1,5.611168861E0,8.193024635E0
4.288285344E1,3.008974493E-1,5.611168861E0,8.193024635E0
4.293285344E1,4.271188378E-1,5.539982796E0,8.047062874E0
4.298285344E1,4.271188378E-1,5.539982796E0,8.047062874E0
4.303285344E1,4.271188378E-1,5.539982796E0,8.047062874E0
4.308285344E1,4.271188378E-1,5.539982796E0,8.047062874E0
4.313285344E1,4.271188378E-1,5.539982796E0,8.047062874E0
4.318285344E1,3.882354796E-1,5.580062389E0,8.120043755E0
4.323285344E1,3.882354796E-1,5.580062389E0,8.120043755E0
4.328285344E1,3.882354796E-1,5.580062389E0,8.120043755E0
4.333285344E1,3.882354796E-1,5.580062389E0,8.120043755E0
4.338285344E1,3.882354796E-1,5.580062389E0,8.120043755E0
4.343285344E1,2.141576260E-1,5.583053589E0,8.132605553E0
4.348285344E1,2.141576260E-1,5.583053589E0,8.132605553E0
4.353285344E1,2.141576260E-1,5.583053589E0,8.132605553E0
4.358285344E1,2.141576260E-1,5.583053589E0,8.132605553E0
4.363285344E1,2.141576260E-1,5.583053589E0,8.132605553E0
4.368285344E1,2.967100143E-1,5.577071190E0,8.089534760E0
4.373285344E1,2.967100143E-1,5.577071190E0,8.089534760E0
4.378285344E1,2.967100143E-1,5.577071190E0,8.089534760E0
4.383285344E1,2.967100143E-1,5.577071190E0,8.089534760E0
4.388285344E1,2.662015259E-1,5.574678421E0,8.150551796E0
4.393285344E1,4.319044948E-1,5.552545071E0,8.161917686E0
4.398285344E1,3.116651475E-1,5.528018475E0,8.099704742E0
4.403285344E1,2.841476798E-1,5.574080467E0,8.207381248E0
4.408285344E1,3.637090325E-1,5.598008633E0,8.130212784E0
4.413285344E1,2.392822653E-1,5.504688263E0,8.136793137E0
4.418285344E1,3.379862010E-1,5.605186939E0,8.096115112E0
4.423285344E1,3.936193287E-1,5.561518192E0,8.192426682E0
4.428285344E1,4.301098585E-1,5.534000397E0,8.058428764E0
4.433285344E1,3.355933726E-1,5.554339409E0,8.103293419E0
4.438285344E1,3.218346536E-1,5.577071190E0,8.218747139E0
4.443285344E1,3.744767308E-1,5.542973518E0,8.199604988E0
4.448285344E1,3.684946895E-1,5.548357487E0,7.966304779E0
4.453285344E1,3.349951804E-1,5.568696499E0,8.219944000E0
4.458285344E1,2.931207716E-1,5.525027275E0,8.196015358E0
4.463285344E1,3.493520916E-1,5.579464436E0,8.130811691E0
4.468285344E1,3.894318938E-1,5.559723377E0,8.097909927E0
4.473285344E1,3.996013701E-1,5.557330608E0,8.173882484E0
4.478285344E1,3.744767308E-1,5.583651543E0,8.160123825E0
4.483285344E1,3.391826153E-1,5.575276852E0,8.031509399E0
4.488285344E1,2.793620527E-1,5.596812248E0,8.198408127E0
4.493285344E1,3.008974493E-1,5.581857204E0,8.138587952E0
4.498285344E1,3.188436031E-1,5.574678421E0,8.055437088E0
4.503285344E1,4.432703853E-1,5.564508915E0,8.117053032E0
4.508285344E1,3.768695593E-1,5.553143024E0,8.140980721E0
4.513285344E1,4.695914388E-1,5.498706341E0,8.086544037E0
4.518285344E1,2.488535494E-1,5.606383324E0,8.084151268E0
4.523285344E1,2.997010350E-1,5.568098068E0,8.204988480E0
4.528285344E1,2.195414752E-1,5.586044312E0,8.130212784E0
4.533285344E1,2.745763958E-1,5.629713535E0,8.042277336E0
4.538285344E1,3.505485058E-1,5.574678421E0,8.134998322E0
4.543285344E1,4.247260094E-1,5.550750256E0,8.085946083E0
4.548285344E1,3.726821244E-1,5.542375565E0,8.168498039E0
4.553285344E1,4.151547253E-1,5.581258774E0,8.043473244E0
4.558285344E1,3.367897868E-1,5.584847927E0,8.078767776E0
4.563285344E1,2.093719840E-1,5.633901119E0,8.166703224E0
4.568285344E1,3.726821244E-1,5.618945599E0,8.191828728E0
4.573285344E1,3.619144261E-1,5.582455158E0,7.916653633E0
4.578285344E1,4.492524564E-1,5.537590027E0,8.084151268E0
4.583285344E1,3.918247223E-1,5.569294930E0,8.230711937E0
4.588285344E1,3.355933726E-1,5.581857204E0,8.127820015E0
4.593285344E1,3.056831062E-1,5.600401402E0,7.945367813E0
4.598285344E1,3.098705411E-1,5.635097504E0,8.126624107E0
4.603285344E1,3.098705411E-1,5.635097504E0,8.126624107E0
4.608285344E1,3.098705411E-1,5.635097504E0,8.126624107E0
4.613285344E1,3.242274821E-1,5.574080467E0,8.134400368E0
4.618285344E1,4.390829504E-1,5.510072231E0,8.086544037E0
4.623285344E1,4.013960063E-1,5.562116146E0,8.132007599E0
4.628285344E1,3.020938635E-1,5.565107346E0,8.154141426E0
4.633285344E1,1.950150430E-1,5.596213818E0,8.132605553E0
4.638285344E1,3.499503136E-1,5.555535793E0,8.207381248E0
4.638285344E1,3.499503136E-1,5.555535793E0,8.207381248E0
4.648285344E1,3.930211067E-1,5.553143024E0,8.111668587E0
4.653285344E1,4.319044948E-1,5.536393166E0,8.261817932E0
4.658285344E1,3.457628787E-1,5.557928562E0,8.076375008E0
4.663285344E1,3.116651475E-1,5.522634506E0,8.116454124E0
4.668285344E1,3.661018610E-1,5.595017433E0,8.048856735E0
4.673285344E1,4.013960063E-1,5.522634506E0,8.221738815E0
4.678285344E1,3.720839322E-1,5.518447399E0,8.063214302E0
4.683285344E1,3.720839322E-1,5.518447399E0,8.063214302E0
4.688285344E1,3.385843933E-1,5.568696499E0,8.036294937E0
4.693285344E1,3.116651475E-1,5.545366287E0,8.165507317E0
4.698285344E1,3.116651475E-1,5.545366287E0,8.165507317E0
4.703285344E1,2.793620527E-1,5.559125423E0,8.096714020E0
4.708285344E1,2.793620527E-1,5.559125423E0,8.096714020E0
4.713285344E1,3.810569942E-1,5.539384365E0,8.067999840E0
4.718285344E1,4.097708762E-1,5.518447399E0,8.309076309E0
4.723285344E1,3.212364316E-1,5.539384365E0,8.116454124E0
4.728285344E1,3.212364316E-1,5.539384365E0,8.116454124E0
4.733285344E1,3.212364316E-1,5.539384365E0,8.116454124E0
4.738285344E1,4.199403822E-1,5.544169903E0,8.060821533E0
4.743285344E1,4.199403822E-1,5.544169903E0,8.060821533E0
4.748285344E1,4.199403822E-1,5.544169903E0,8.060821533E0
4.753285344E1,4.199403822E-1,5.544169903E0,8.060821533E0
4.758285344E1,4.199403822E-1,5.544169903E0,8.060821533E0
4.763285344E1,4.199403822E-1,5.544169903E0,8.060821533E0
4.768285344E1,3.774677813E-1,5.565705299E0,8.167900085E0
4.773285344E1,3.774677813E-1,5.565705299E0,8.167900085E0
4.778285344E1,3.774677813E-1,5.565705299E0,8.167900085E0
4.783285344E1,4.061816335E-1,5.539982796E0,8.151748657E0
4.788285344E1,3.397808075E-1,5.511867046E0,8.164909363E0
4.793285344E1,3.002992272E-1,5.573482037E0,8.050651550E0
4.798285344E1,3.397808075E-1,5.554937840E0,8.193024635E0
4.803285344E1,3.242274821E-1,5.560919762E0,7.985447407E0
4.808285344E1,2.829512656E-1,5.532804012E0,8.193024635E0
4.813285344E1,3.152543902E-1,5.540580750E0,8.248059273E0
4.818285344E1,3.667000830E-1,5.524429321E0,8.043473244E0
4.823285344E1,3.732803464E-1,5.599802971E0,8.008777618E0
4.828285344E1,3.379862010E-1,5.561518192E0,8.115856171E0
4.833285344E1,3.290131092E-1,5.530411243E0,8.151150703E0
4.838285344E1,3.332005441E-1,5.569294930E0,8.161319733E0
4.843285344E1,3.290131092E-1,5.549553871E0,8.087141991E0
4.848285344E1,3.068794906E-1,5.545366287E0,8.210372925E0
4.853285344E1,4.109672904E-1,5.529214859E0,8.178069115E0
4.858285344E1,3.918247223E-1,5.549553871E0,8.112266541E0
4.863285344E1,3.798605800E-1,5.520840168E0,8.137392044E0
4.868285344E1,3.714857101E-1,5.522036552E0,8.020143509E0
4.873285344E1,3.667000830E-1,5.523232937E0,8.236095428E0
4.878285344E1,3.912265003E-1,5.543571949E0,8.118248940E0
4.883285344E1,3.912265003E-1,5.543571949E0,8.118248940E0
4.888285344E1,3.912265003E-1,5.543571949E0,8.118248940E0
4.893285344E1,3.451646566E-1,5.553741455E0,8.147561073E0
4.898285344E1,3.960121572E-1,5.508277893E0,8.207381248E0
4.903285344E1,3.786641955E-1,5.517848969E0,8.136195183E0
4.908285344E1,3.786641955E-1,5.517848969E0,8.136195183E0
4.913285344E1,3.990031779E-1,5.560919762E0,8.036892891E0
4.918285344E1,3.990031779E-1,5.560919762E0,8.036892891E0
4.923285344E1,3.990031779E-1,5.560919762E0,8.036892891E0
4.928285344E1,3.990031779E-1,5.560919762E0,8.036892891E0
4.933285344E1,3.990031779E-1,5.560919762E0,8.036892891E0
4.938285344E1,3.990031779E-1,5.560919762E0,8.036892891E0
4.943285344E1,3.990031779E-1,5.560919762E0,8.036892891E0
4.948285344E1,3.990031779E-1,5.560919762E0,8.036892891E0
4.953285344E1,3.427718580E-1,5.553143024E0,7.998009682E0
4.958285344E1,3.427718580E-1,5.553143024E0,7.998009682E0
4.963285344E1,3.014956415E-1,5.528616905E0,8.050053596E0
4.968285344E1,4.402793646E-1,5.504090309E0,8.172087669E0
4.973285344E1,3.792623878E-1,5.569892883E0,8.123034477E0
4.978285344E1,3.158525825E-1,5.523830891E0,8.103293419E0
4.983285344E1,5.030909777E-1,5.509474277E0,8.087740898E0
4.988285344E1,4.103690982E-1,5.606981754E0,8.168498039E0
4.993285344E1,3.649054468E-1,5.511268616E0,8.277970314E0
4.998285344E1,3.954139352E-1,5.526223660E0,8.019545555E0
5.003285344E1,3.332005441E-1,5.548955917E0,8.155936241E0
5.008285344E1,4.265206456E-1,5.522634506E0,8.150551796E0
5.013285344E1,2.793620527E-1,5.517848969E0,8.111668587E0
5.018285344E1,4.187439680E-1,5.525027275E0,8.193622589E0
5.023285344E1,2.608176768E-1,5.560919762E0,8.159524918E0
5.028285344E1,3.236292601E-1,5.607579708E0,7.994420528E0
5.033285344E1,2.721835673E-1,5.560321808E0,8.097909927E0
5.038285344E1,3.296113312E-1,5.554339409E0,8.317451477E0
5.043285344E1,2.141576260E-1,5.536991596E0,8.170890808E0
5.048285344E1,3.188436031E-1,5.546562672E0,8.060222626E0
5.053285344E1,3.499503136E-1,5.553741455E0,8.065607071E0
5.058285344E1,3.098705411E-1,5.507081509E0,8.295317650E0
5.063285344E1,3.529413342E-1,5.568696499E0,8.057231903E0
5.068285344E1,2.171486616E-1,5.574080467E0,8.023732185E0
5.073285344E1,2.685943544E-1,5.551348686E0,8.210970879E0
5.078285344E1,2.536391914E-1,5.599802971E0,8.107481003E0
5.083285344E1,4.103690982E-1,5.522634506E0,8.158329010E0
5.088285344E1,4.103690982E-1,5.522634506E0,8.158329010E0
5.093285344E1,3.326023519E-1,5.529813290E0,8.210970879E0
5.098285344E1,3.044866920E-1,5.500501156E0,8.182855606E0
5.103285344E1,3.044866920E-1,5.500501156E0,8.182855606E0
5.108285344E1,3.044866920E-1,5.500501156E0,8.182855606E0
5.113285344E1,3.044866920E-1,5.500501156E0,8.182855606E0
5.118285344E1,3.044866920E-1,5.500501156E0,8.182855606E0
5.123285344E1,3.044866920E-1,5.500501156E0,8.182855606E0
5.128285344E1,4.043870270E-1,5.513063431E0,8.201997757E0
5.133285344E1,4.043870270E-1,5.513063431E0,8.201997757E0
5.138285344E1,4.043870270E-1,5.513063431E0,8.201997757E0
5.143285344E1,4.043870270E-1,5.513063431E0,8.201997757E0
5.148285344E1,4.043870270E-1,5.513063431E0,8.201997757E0
5.153285344E1,3.445664644E-1,5.547161102E0,8.102097511E0
5.158285344E1,3.445664644E-1,5.547161102E0,8.102097511E0
5.163285344E1,3.445664644E-1,5.547161102E0,8.102097511E0
5.168285344E1,3.445664644E-1,5.547161102E0,8.102097511E0
5.173285344E1,3.445664644E-1,5.547161102E0,8.102097511E0
5.178285344E1,3.445664644E-1,5.547161102E0,8.102097511E0
5.183285344E1,2.177468538E-1,5.560919762E0,7.983652592E0
5.188285344E1,3.236292601E-1,5.538187981E0,8.192426682E0
5.193285344E1,3.236292601E-1,5.538187981E0,8.192426682E0
5.198285344E1,3.236292601E-1,5.538187981E0,8.192426682E0
5.203285344E1,3.236292601E-1,5.538187981E0,8.192426682E0
5.208285344E1,3.236292601E-1,5.538187981E0,8.192426682E0
5.213285344E1,3.236292601E-1,5.538187981E0,8.192426682E0
5.218285344E1,3.236292601E-1,5.538187981E0,8.192426682E0
5.223285344E1,3.236292601E-1,5.538187981E0,8.192426682E0
5.228285344E1,3.236292601E-1,5.538187981E0,8.192426682E0
5.233285344E1,3.236292601E-1,5.538187981E0,8.192426682E0
5.238285344E1,3.942175210E-1,5.540580750E0,8.157132149E0
5.243285344E1,4.085744619E-1,5.519643784E0,8.142177582E0
5.248285344E1,5.156532526E-1,5.542973518E0,8.077570915E0
5.253285344E1,4.666004181E-1,5.499304771E0,8.218747139E0
5.258285344E1,3.708875179E-1,5.502295494E0,8.122436523E0
5.263285344E1,2.590230405E-1,5.487340450E0,8.230113029E0
5.268285344E1,3.361915946E-1,5.548357487E0,8.223533630E0
5.273285344E1,1.573280841E-1,5.584249973E0,8.051848412E0
5.278285344E1,1.842473447E-1,5.598008633E0,8.271987915E0
5.283285344E1,2.482553422E-1,5.556732178E0,8.075178146E0
5.288285344E1,4.199403822E-1,5.525027275E0,8.152944565E0
5.293285344E1,3.972085714E-1,5.535196781E0,8.131409645E0
5.298285344E1,3.403790295E-1,5.501697540E0,8.165507317E0
5.303285344E1,2.895315289E-1,5.516652584E0,8.222934723E0
5.308285344E1,1.722832322E-1,5.523232937E0,8.215158463E0
5.313285344E1,2.781656384E-1,5.662614822E0,7.897511005E0
5.318285344E1,2.745763958E-1,5.560321808E0,8.035696983E0
5.323285344E1,2.745763958E-1,5.560321808E0,8.035696983E0
5.328285344E1,3.870390654E-1,5.438287735E0,8.435297966E0
5.333285344E1,2.554338276E-1,5.585446358E0,8.209176064E0
5.338285344E1,2.500499785E-1,5.504090309E0,8.082356453E0
5.343285344E1,2.213360965E-1,5.498706341E0,8.068597794E0
5.348285344E1,2.422732860E-1,5.673382282E0,8.355736732E0
5.353285344E1,1.686939895E-1,5.522634506E0,8.197810173E0
5.358285344E1,3.361915946E-1,5.623133183E0,8.050651550E0
5.363285344E1,2.901297510E-1,5.591428280E0,7.933403492E0
5.368285344E1,3.924229145E-1,5.545964718E0,8.120641708E0
5.373285344E1,3.463610709E-1,5.498108387E0,8.163712502E0
5.378285344E1,3.427718580E-1,5.516652584E0,8.216953278E0
5.383285344E1,3.649054468E-1,5.513063431E0,8.178069115E0
5.388285344E1,3.302095234E-1,5.501697540E0,8.115258217E0
5.393285344E1,2.859423161E-1,5.616552830E0,8.133802414E0
5.398285344E1,3.337987661E-1,5.563312531E0,8.085348129E0
5.403285344E1,2.045863420E-1,5.511867046E0,8.170890808E0
5.408285344E1,4.247260094E-1,5.525625706E0,8.181060791E0
5.413285344E1,3.649054468E-1,5.504090309E0,8.151150703E0
5.418285344E1,3.756731451E-1,5.526223660E0,8.200801849E0
5.423285344E1,2.793620527E-1,5.513063431E0,8.037490845E0
5.428285344E1,2.997010350E-1,5.523830891E0,8.129016876E0
5.433285344E1,3.661018610E-1,5.444269657E0,8.391031265E0
5.438285344E1,2.871387303E-1,5.511867046E0,8.184051514E0
5.443285344E1,4.187439680E-1,5.544768333E0,7.987840176E0
5.448285344E1,3.732803464E-1,5.499304771E0,8.197810173E0
5.453285344E1,2.536391914E-1,5.471786976E0,8.502297401E0
5.458285344E1,2.536391914E-1,5.471786976E0,8.502297401E0
5.463285344E1,3.146561682E-1,5.539384365E0,7.826922894E0
5.468285344E1,3.302095234E-1,5.496313572E0,8.164909363E0
5.473285344E1,4.432703853E-1,5.497509956E0,8.432307243E0
5.478285344E1,4.342973232E-1,5.370690346E0,8.172087669E0
5.483285344E1,2.506481707E-1,5.539384365E0,8.230113029E0
5.488285344E1,7.956135273E-2,5.641677380E0,8.230711937E0
5.493285344E1,2.572284341E-1,5.559125423E0,8.017151833E0
5.498285344E1,1.064806059E-1,5.470590591E0,8.193622589E0
5.503285344E1,4.594219327E-1,5.581258774E0,8.356932640E0
5.508285344E1,4.217349887E-1,5.386841774E0,8.179863930E0
5.513285344E1,2.757728100E-1,5.404788017E0,8.222934723E0
5.518285344E1,2.476571500E-1,5.626722336E0,8.102695465E0
5.523285344E1,3.798605800E-1,5.480162144E0,8.071588516E0
5.528285344E1,4.043870270E-1,5.419743061E0,8.358129501E0
5.533285344E1,3.056831062E-1,5.544169903E0,8.262416840E0
5.538285344E1,3.415754437E-1,5.543571949E0,8.116454124E0
5.543285344E1,2.566302419E-1,5.561518192E0,8.039883614E0
5.548285344E1,3.678964674E-1,5.489733219E0,8.304290771E0
5.553285344E1,2.087737769E-1,5.553143024E0,8.237292290E0
5.558285344E1,3.619144261E-1,5.512465000E0,8.076972961E0
5.563285344E1,3.433700502E-1,5.496313572E0,8.130212784E0
5.568285344E1,3.332005441E-1,5.554937840E0,8.121838570E0
5.573285344E1,3.439682424E-1,5.523232937E0,8.215158463E0
5.578285344E1,3.320041299E-1,5.518447399E0,8.104490280E0
5.583285344E1,3.044866920E-1,5.579464436E0,8.062017441E0
5.588285344E1,2.865405083E-1,5.542375565E0,8.212167740E0
5.593285344E1,2.333002090E-1,5.556134224E0,8.099704742E0
5.598285344E1,3.475574851E-1,5.507081509E0,8.170292854E0
5.603285344E1,3.176472187E-1,5.515456200E0,8.160123825E0
5.608285344E1,2.859423161E-1,5.522634506E0,8.190631866E0
5.613285344E1,3.601198196E-1,5.485546112E0,8.152346611E0
5.618285344E1,1.926222295E-1,5.583651543E0,8.154141426E0
5.623285344E1,2.691925466E-1,5.513063431E0,8.239086151E0
5.628285344E1,2.644068897E-1,5.560919762E0,8.041678429E0
5.633285344E1,3.565305769E-1,5.493920803E0,8.239685059E0
5.638285344E1,3.463610709E-1,5.544169903E0,8.169096947E0
5.643285344E1,3.397808075E-1,5.413761139E0,8.353941917E0
5.648285344E1,1.740778536E-1,5.533402443E0,8.163114548E0
5.653285344E1,3.391826153E-1,5.625525951E0,7.998608112E0
5.658285344E1,3.553341627E-1,5.467001438E0,8.097909927E0
5.663285344E1,2.895315289E-1,5.481358528E0,8.386843681E0
5.668285344E1,3.912265003E-1,5.586642742E0,8.123034477E0
5.673285344E1,3.804588020E-1,5.523830891E0,7.899305820E0
5.678285344E1,4.600201547E-1,5.498108387E0,8.094321251E0
5.683285344E1,4.007977843E-1,5.539982796E0,8.263014793E0
5.688285344E1,3.541377485E-1,5.453841209E0,8.282755852E0
5.693285344E1,3.487538993E-1,5.511867046E0,8.113463402E0
5.698285344E1,4.414757788E-1,5.487340450E0,8.137989998E0
5.703285344E1,3.684946895E-1,5.462215900E0,8.290532112E0
5.708285344E1,4.163511395E-1,5.463412285E0,8.178069115E0
5.713285344E1,4.797609448E-1,5.486144066E0,8.157731056E0
5.718285344E1,3.122633696E-1,5.544169903E0,8.154739380E0
5.723285344E1,2.380858511E-1,5.586044312E0,8.123034477E0
5.728285344E1,3.451646566E-1,5.543571949E0,8.026723862E0
5.733285344E1,3.242274821E-1,5.510072231E0,8.212167740E0
5.738285344E1,4.157529473E-1,5.526223660E0,8.276773453E0
5.743285344E1,2.620140910E-1,5.431109428E0,8.247461319E0
5.748285344E1,1.064806059E-1,5.568098068E0,8.204390526E0
5.753285344E1,2.991028428E-1,5.592624664E0,8.161917686E0
5.758285344E1,3.469592929E-1,5.416752338E0,8.060821533E0
5.763285344E1,4.869394004E-1,5.362913609E0,8.397012711E0
5.768285344E1,4.863412082E-1,5.536991596E0,8.164310455E0
5.773285344E1,3.200400174E-1,5.475376606E0,8.074580193E0
5.778285344E1,5.312066078E-1,5.519643784E0,8.027321815E0
5.783285344E1,3.511467278E-1,5.478367329E0,8.123034477E0
5.788285344E1,3.266202807E-1,5.457430363E0,8.350353241E0
5.793285344E1,2.727817893E-1,5.463412285E0,8.321639061E0
5.798285344E1,3.589234054E-1,5.526822090E0,8.016553879E0
5.803285344E1,2.590230405E-1,5.538786411E0,8.097311974E0
5.808285344E1,2.667997181E-1,5.495117188E0,8.288737297E0
5.813285344E1,4.761717021E-1,5.495715618E0,8.164310455E0
5.818285344E1,3.589234054E-1,5.353940487E0,8.328817368E0
5.823285344E1,3.882354796E-1,5.684748173E0,7.954938889E0
5.828285344E1,4.283152521E-1,5.575276852E0,7.939983845E0
5.833285344E1,3.613162339E-1,5.372485161E0,8.252845764E0
5.838285344E1,5.174478889E-1,5.488536835E0,8.458627701E0
5.843285344E1,3.942175210E-1,5.454439163E0,8.010572433E0
5.848285344E1,3.942175210E-1,5.454439163E0,8.010572433E0
5.853285344E1,1.172483116E-1,5.534000397E0,8.374280930E0
5.858285344E1,1.172483116E-1,5.534000397E0,8.374280930E0
5.863285344E1,2.943171859E-1,5.611168861E0,7.901100159E0
5.868285344E1,2.943171859E-1,5.611168861E0,7.901100159E0
5.873285344E1,5.724828243E-1,5.407779217E0,8.340781212E0
5.878285344E1,4.600201547E-1,5.471189022E0,8.218747139E0
5.883285344E1,4.600201547E-1,5.471189022E0,8.218747139E0
5.888285344E1,3.505485058E-1,5.561518192E0,8.082955360E0
5.893285344E1,3.505485058E-1,5.561518192E0,8.082955360E0
5.898285344E1,3.505485058E-1,5.561518192E0,8.082955360E0
5.903285344E1,4.534398913E-1,5.499304771E0,8.178668022E0
5.908285344E1,4.534398913E-1,5.499304771E0,8.178668022E0
5.913285344E1,4.055834413E-1,5.512465000E0,8.196614265E0
5.918285344E1,4.055834413E-1,5.512465000E0,8.196614265E0
5.923285344E1,4.055834413E-1,5.512465000E0,8.196614265E0
5.928285344E1,3.397808075E-1,5.498706341E0,8.172685623E0
5.933285344E1,3.397808075E-1,5.498706341E0,8.172685623E0
5.938285344E1,4.899304509E-1,5.411368370E0,8.314460754E0
5.943285344E1,1.926222295E-1,5.524429321E0,8.193622589E0
5.948285344E1,1.926222295E-1,5.524429321E0,8.193622589E0
5.953285344E1,3.643072546E-1,5.513661385E0,8.078767776E0
5.958285344E1,2.769692242E-1,5.429314613E0,8.279764175E0
5.963285344E1,2.967100143E-1,5.444269657E0,8.309675217E0
5.968285344E1,2.673979402E-1,5.416752338E0,8.357531548E0
5.973285344E1,2.673979402E-1,5.416752338E0,8.357531548E0
5.978285344E1,3.936193287E-1,5.417350292E0,8.280961037E0
5.983285344E1,3.936193287E-1,5.417350292E0,8.280961037E0
5.988285344E1,3.547359705E-1,5.501099110E0,8.033902168E0
5.993285344E1,2.763710022E-1,5.593821049E0,8.206783295E0
5.998285344E1,6.969096065E-1,5.375475883E0,8.251050949E0
6.003285344E1,2.691925466E-1,5.430510998E0,8.056035995E0
6.008285344E1,2.691925466E-1,5.430510998E0,8.056035995E0
6.013285344E1,5.174478889E-1,5.401797295E0,8.572885513E0
6.018285344E1,5.174478889E-1,5.401797295E0,8.572885513E0
6.023285344E1,5.174478889E-1,5.401797295E0,8.572885513E0
6.028285344E1,2.721835673E-1,5.525027275E0,8.307282448E0
6.033285344E1,2.685943544E-1,5.405984402E0,8.268398285E0
6.038285344E1,2.925225794E-1,5.456233978E0,8.192426682E0
6.043285344E1,3.613162339E-1,5.529813290E0,8.248658180E0
6.048285344E1,2.590230405E-1,5.524429321E0,8.108677864E0
6.053285344E1,4.235295951E-1,5.498108387E0,8.170292854E0
6.058285344E1,3.678964674E-1,5.436492920E0,8.170292854E0
6.063285344E1,5.126622319E-1,5.462814331E0,8.192426682E0
6.068285344E1,3.541377485E-1,5.476572990E0,8.133802414E0
6.073285344E1,3.260220885E-1,5.493920803E0,8.249854088E0
6.078285344E1,1.639083475E-1,5.532206059E0,8.220541954E0
6.083285344E1,2.650051117E-1,5.540580750E0,8.181060791E0
6.088285344E1,2.673979402E-1,5.541777134E0,8.157132149E0
6.093285344E1,3.493520916E-1,5.600999832E0,8.027919769E0
6.098285344E1,4.971089065E-1,5.393422127E0,8.244470596E0
6.103285344E1,4.600201547E-1,5.398207664E0,8.249854088E0
6.108285344E1,3.876372576E-1,5.501099110E0,8.241478920E0
6.113285344E1,9.152546525E-2,5.561518192E0,8.188239098E0
6.118285344E1,1.597209126E-1,5.553143024E0,8.203194618E0
6.123285344E1,3.116651475E-1,5.514259815E0,8.163712502E0
6.128285344E1,3.463610709E-1,5.512465000E0,8.094321251E0
6.133285344E1,4.683950245E-1,5.511268616E0,8.175676346E0
6.138285344E1,3.128615618E-1,5.475376606E0,8.139185905E0
6.143285344E1,3.894318938E-1,5.504688263E0,8.153543472E0
6.148285344E1,3.044866920E-1,5.539982796E0,8.127222061E0
6.153285344E1,2.524427772E-1,5.490331650E0,8.300702095E0
6.158285344E1,3.230310678E-1,5.538187981E0,8.140980721E0
6.163285344E1,2.877369225E-1,5.530411243E0,8.074580193E0
6.168285344E1,2.877369225E-1,5.530411243E0,8.074580193E0
6.173285344E1,2.877369225E-1,5.530411243E0,8.074580193E0
6.178285344E1,2.877369225E-1,5.530411243E0,8.074580193E0
6.183285344E1,2.877369225E-1,5.530411243E0,8.074580193E0
6.188285344E1,2.877369225E-1,5.530411243E0,8.074580193E0
6.193285344E1,2.877369225E-1,5.530411243E0,8.074580193E0
6.198285344E1,3.702892959E-1,5.495715618E0,8.106883049E0
6.203285344E1,3.702892959E-1,5.495715618E0,8.106883049E0
6.208285344E1,3.702892959E-1,5.495715618E0,8.106883049E0
6.213285344E1,3.702892959E-1,5.495715618E0,8.106883049E0
6.218285344E1,3.702892959E-1,5.495715618E0,8.106883049E0
6.223285344E1,2.985046208E-1,5.575276852E0,8.118846893E0
6.228285344E1,2.985046208E-1,5.575276852E0,8.118846893E0
6.233285344E1,2.985046208E-1,5.575276852E0,8.118846893E0
6.238285344E1,2.985046208E-1,5.575276852E0,8.118846893E0
6.243285344E1,2.985046208E-1,5.575276852E0,8.118846893E0
6.248285344E1,3.804588020E-1,5.491528034E0,8.259425163E0
6.253285344E1,3.804588020E-1,5.491528034E0,8.259425163E0
6.258285344E1,3.804588020E-1,5.491528034E0,8.259425163E0
6.263285344E1,3.804588020E-1,5.491528034E0,8.259425163E0
6.268285344E1,3.804588020E-1,5.491528034E0,8.259425163E0
6.273285344E1,4.019941986E-1,5.487938881E0,8.285148621E0
6.278285344E1,4.019941986E-1,5.487938881E0,8.285148621E0
6.283285344E1,4.019941986E-1,5.487938881E0,8.285148621E0
6.288285344E1,4.019941986E-1,5.487938881E0,8.285148621E0
6.293285344E1,4.019941986E-1,5.487938881E0,8.285148621E0
6.298285344E1,3.744767308E-1,5.487340450E0,8.203194618E0
6.303285344E1,3.744767308E-1,5.487340450E0,8.203194618E0
6.308285344E1,3.744767308E-1,5.487340450E0,8.203194618E0
6.313285344E1,3.744767308E-1,5.487340450E0,8.203194618E0
6.318285344E1,3.744767308E-1,5.487340450E0,8.203194618E0
6.323285344E1,3.523431420E-1,5.512465000E0,8.136195183E0
6.328285344E1,3.523431420E-1,5.512465000E0,8.136195183E0
6.333285344E1,3.523431420E-1,5.512465000E0,8.136195183E0
6.338285344E1,3.523431420E-1,5.512465000E0,8.136195183E0
6.343285344E1,3.523431420E-1,5.512465000E0,8.136195183E0
6.348285344E1,3.613162339E-1,5.493920803E0,8.246265411E0
6.353285344E1,3.613162339E-1,5.493920803E0,8.246265411E0
6.358285344E1,3.613162339E-1,5.493920803E0,8.246265411E0
6.363285344E1,3.613162339E-1,5.493920803E0,8.246265411E0
6.368285344E1,3.613162339E-1,5.493920803E0,8.246265411E0
6.373285344E1,3.038884699E-1,5.488536835E0,8.142775536E0
6.378285344E1,3.038884699E-1,5.488536835E0,8.142775536E0
6.383285344E1,3.038884699E-1,5.488536835E0,8.142775536E0
6.388285344E1,3.038884699E-1,5.488536835E0,8.142775536E0
6.393285344E1,3.038884699E-1,5.488536835E0,8.142775536E0
6.398285344E1,3.242274821E-1,5.556134224E0,8.106285095E0
6.403285344E1,3.242274821E-1,5.556134224E0,8.106285095E0
6.408285344E1,3.242274821E-1,5.556134224E0,8.106285095E0
6.413285344E1,3.242274821E-1,5.556134224E0,8.106285095E0
6.418285344E1,3.242274821E-1,5.556134224E0,8.106285095E0
6.423285344E1,3.493520916E-1,5.532804012E0,8.120641708E0
6.428285344E1,3.493520916E-1,5.532804012E0,8.120641708E0
6.433285344E1,3.493520916E-1,5.532804012E0,8.120641708E0
6.438285344E1,3.493520916E-1,5.532804012E0,8.120641708E0
6.443285344E1,3.493520916E-1,5.532804012E0,8.120641708E0
6.448285344E1,2.823530734E-1,5.548955917E0,8.330612183E0
6.453285344E1,2.823530734E-1,5.548955917E0,8.330612183E0
6.458285344E1,2.632105052E-1,5.522036552E0,8.237292290E0
6.463285344E1,3.804588020E-1,5.562116146E0,8.279764175E0
6.468285344E1,3.667000830E-1,5.517251015E0,8.092526436E0
6.473285344E1,4.510470629E-1,5.527420521E0,8.054241180E0
6.478285344E1,4.109672904E-1,5.539384365E0,8.090133667E0
6.483285344E1,3.678964674E-1,5.530411243E0,8.238488197E0
6.488285344E1,3.696911037E-1,5.525027275E0,8.185846329E0
6.493285344E1,3.696911037E-1,5.525027275E0,8.185846329E0
6.498285344E1,3.996013701E-1,5.562116146E0,8.167302132E0
6.503285344E1,3.996013701E-1,5.562116146E0,8.167302132E0
6.508285344E1,3.882354796E-1,5.538786411E0,8.123632431E0
6.513285344E1,3.954139352E-1,5.529813290E0,8.141578674E0
6.518285344E1,3.481557071E-1,5.516054630E0,8.180462837E0
6.523285344E1,3.978067636E-1,5.544169903E0,8.137392044E0
6.528285344E1,3.978067636E-1,5.544169903E0,8.137392044E0
6.533285344E1,3.978067636E-1,5.544169903E0,8.137392044E0
6.538285344E1,4.109672904E-1,5.544169903E0,8.137989998E0
6.543285344E1,4.091726840E-1,5.521438122E0,8.192426682E0
6.548285344E1,3.655036688E-1,5.480760098E0,8.163712502E0
6.553285344E1,3.104687333E-1,5.538786411E0,8.206783295E0
6.558285344E1,3.104687333E-1,5.538786411E0,8.206783295E0
6.563285344E1,3.104687333E-1,5.538786411E0,8.206783295E0
6.568285344E1,4.193421602E-1,5.517848969E0,8.131409645E0
6.573285344E1,4.265206456E-1,5.544169903E0,8.094321251E0
6.578285344E1,4.677968323E-1,5.506483078E0,8.197810173E0
6.583285344E1,4.785645306E-1,5.502295494E0,8.157132149E0
6.588285344E1,3.864408433E-1,5.520241737E0,8.104490280E0
6.593285344E1,4.223332107E-1,5.477170944E0,8.239086151E0
6.598285344E1,3.044866920E-1,5.508277893E0,8.219346046E0
6.603285344E1,3.044866920E-1,5.508277893E0,8.219346046E0
6.608285344E1,4.079762697E-1,5.532206059E0,8.091927528E0
6.613285344E1,3.655036688E-1,5.518447399E0,8.129016876E0
6.618285344E1,3.589234054E-1,5.510670662E0,8.212765694E0
6.623285344E1,4.462614357E-1,5.539384365E0,8.129016876E0
6.628285344E1,4.695914388E-1,5.530411243E0,8.172087669E0
6.633285344E1,4.695914388E-1,5.530411243E0,8.172087669E0
6.638285344E1,4.247260094E-1,5.522036552E0,8.273183823E0
6.643285344E1,4.247260094E-1,5.522036552E0,8.273183823E0
6.648285344E1,4.247260094E-1,5.522036552E0,8.273183823E0
6.653285344E1,4.247260094E-1,5.522036552E0,8.273183823E0
6.658285344E1,4.396811724E-1,5.492125988E0,8.284550667E0
6.663285344E1,4.307080805E-1,5.538187981E0,8.249854088E0
6.668285344E1,4.307080805E-1,5.538187981E0,8.249854088E0
6.673285344E1,2.931207716E-1,5.531607628E0,8.074580193E0
6.678285344E1,4.301098585E-1,5.536991596E0,8.326424599E0
6.683285344E1,4.187439680E-1,5.498108387E0,8.135597229E0
6.688285344E1,3.846462369E-1,5.553741455E0,8.004590034E0
6.693285344E1,4.043870270E-1,5.552545071E0,8.156534195E0
6.698285344E1,4.384847581E-1,5.480760098E0,8.161917686E0
6.703285344E1,4.384847581E-1,5.480760098E0,8.161917686E0
6.708285344E1,3.355933726E-1,5.546562672E0,8.080561638E0
6.713285344E1,3.840480447E-1,5.598606586E0,7.987840176E0
6.718285344E1,4.995017350E-1,5.489733219E0,8.243872643E0
6.723285344E1,4.576273263E-1,5.454439163E0,8.148757935E0
6.728285344E1,4.576273263E-1,5.454439163E0,8.148757935E0
6.733285344E1,4.576273263E-1,5.454439163E0,8.148757935E0
6.738285344E1,4.295116663E-1,5.481956482E0,8.157132149E0
6.743285344E1,4.193421602E-1,5.516054630E0,8.024331093E0
6.748285344E1,3.224328458E-1,5.547759533E0,8.186444283E0
6.753285344E1,4.067798555E-1,5.541179180E0,8.260622025E0
6.758285344E1,4.079762697E-1,5.541777134E0,7.972286701E0
6.763285344E1,3.876372576E-1,5.532206059E0,8.190033913E0
6.768285344E1,3.888336718E-1,5.541179180E0,8.144570351E0
6.773285344E1,4.319044948E-1,5.477170944E0,8.170890808E0
6.778285344E1,3.738785386E-1,5.508277893E0,8.173283577E0
6.783285344E1,3.002992272E-1,5.549553871E0,8.167302132E0
6.788285344E1,3.032902777E-1,5.551946640E0,8.134998322E0
6.793285344E1,3.864408433E-1,5.545964718E0,8.206783295E0
6.798285344E1,4.576273263E-1,5.539982796E0,7.942376614E0
6.803285344E1,5.156532526E-1,5.486144066E0,8.170292854E0
6.808285344E1,3.888336718E-1,5.509474277E0,8.310273170E0
6.813285344E1,3.631108403E-1,5.512465000E0,8.233702660E0
6.818285344E1,3.320041299E-1,5.577071190E0,8.020741463E0
6.823285344E1,3.750749528E-1,5.544169903E0,8.114660263E0
6.828285344E1,3.954139352E-1,5.514857769E0,8.207381248E0
6.833285344E1,3.954139352E-1,5.514857769E0,8.207381248E0
6.838285344E1,4.977070987E-1,5.520840168E0,8.001000404E0
6.843285344E1,3.445664644E-1,5.511268616E0,8.291728973E0
6.848285344E1,3.732803464E-1,5.556134224E0,8.202595711E0
6.853285344E1,4.163511395E-1,5.544768333E0,7.987840176E0
6.858285344E1,3.882354796E-1,5.518447399E0,8.175676346E0
6.863285344E1,3.882354796E-1,5.518447399E0,8.175676346E0
6.868285344E1,3.882354796E-1,5.518447399E0,8.175676346E0
6.873285344E1,3.882354796E-1,5.518447399E0,8.175676346E0
6.878285344E1,3.882354796E-1,5.518447399E0,8.175676346E0
6.883285344E1,3.882354796E-1,5.518447399E0,8.175676346E0
6.888285344E1,4.504488707E-1,5.472983360E0,8.252246857E0
6.893285344E1,4.366901219E-1,5.504688263E0,8.273782730E0
6.898285344E1,4.181457460E-1,5.498706341E0,8.108079910E0
6.903285344E1,3.918247223E-1,5.577071190E0,8.087141991E0
6.908285344E1,3.469592929E-1,5.514259815E0,8.228917122E0
6.913285344E1,4.522434771E-1,5.557330608E0,8.073982239E0
6.918285344E1,4.103690982E-1,5.515456200E0,8.146365166E0
6.923285344E1,3.008974493E-1,5.538786411E0,8.136195183E0
6.928285344E1,4.677968323E-1,5.519643784E0,8.304888725E0
6.933285344E1,4.199403822E-1,5.570491314E0,7.984848976E0
6.938285344E1,4.265206456E-1,5.516054630E0,8.066802979E0
6.943285344E1,4.396811724E-1,5.535196781E0,8.148159027E0
6.948285344E1,4.229314029E-1,5.565107346E0,8.249854088E0
6.953285344E1,3.649054468E-1,5.516054630E0,8.090133667E0
6.958285344E1,5.401797295E-1,5.562116146E0,8.131409645E0
6.963285344E1,3.056831062E-1,5.520840168E0,8.094321251E0
6.968285344E1,4.271188378E-1,5.501099110E0,8.274978638E0
6.973285344E1,3.768695593E-1,5.497509956E0,8.177471161E0
6.978285344E1,4.235295951E-1,5.572884083E0,8.148757935E0
6.983285344E1,4.235295951E-1,5.572884083E0,8.148757935E0
6.988285344E1,4.289134443E-1,5.548357487E0,8.092526436E0
6.993285344E1,4.241278172E-1,5.531009674E0,8.175078392E0
6.998285344E1,4.791627228E-1,5.526822090E0,8.092526436E0
7.003285344E1,4.139583111E-1,5.493322372E0,8.232506752E0
7.008285344E1,4.139583111E-1,5.493322372E0,8.232506752E0
7.013285344E1,3.541377485E-1,5.549553871E0,8.217551231E0
7.018285344E1,3.212364316E-1,5.529813290E0,8.234300613E0
7.023285344E1,4.749752879E-1,5.496912003E0,8.111070633E0
7.028285344E1,4.779663086E-1,5.529813290E0,8.005187988E0
7.033285344E1,4.779663086E-1,5.529813290E0,8.005187988E0
7.038285344E1,4.157529473E-1,5.525027275E0,8.252845764E0
7.043285344E1,3.996013701E-1,5.536991596E0,8.130811691E0
7.048285344E1,2.781656384E-1,5.556732178E0,8.006982803E0
7.053285344E1,4.217349887E-1,5.551348686E0,8.268398285E0
7.058285344E1,4.677968323E-1,5.465805054E0,8.131409645E0
7.063285344E1,4.677968323E-1,5.465805054E0,8.131409645E0
7.068285344E1,4.677968323E-1,5.465805054E0,8.131409645E0
7.073285344E1,4.677968323E-1,5.465805054E0,8.131409645E0
7.078285344E1,4.677968323E-1,5.465805054E0,8.131409645E0
7.083285344E1,4.677968323E-1,5.465805054E0,8.131409645E0
7.088285344E1,4.677968323E-1,5.465805054E0,8.131409645E0
7.093285344E1,4.677968323E-1,5.465805054E0,8.131409645E0
7.098285344E1,4.677968323E-1,5.465805054E0,8.131409645E0
7.103285344E1,4.677968323E-1,5.465805054E0,8.131409645E0
7.108285344E1,6.490531564E-1,5.374279499E0,8.124231339E0
7.113285344E1,5.216353536E-1,5.495715618E0,8.327621460E0
7.118285344E1,2.548356056E-1,5.569892883E0,8.239086151E0
7.123285344E1,1.920240223E-1,5.608178139E0,7.966903210E0
7.128285344E1,3.284149170E-1,5.644070625E0,8.032107353E0
7.133285344E1,4.139583111E-1,5.512465000E0,8.191828728E0
7.138285344E1,7.082754970E-1,5.429314613E0,8.185846329E0
7.143285344E1,5.886343718E-1,5.504090309E0,8.088338852E0
7.148285344E1,4.259224236E-1,5.512465000E0,8.210970879E0
7.153285344E1,3.266202807E-1,5.592026711E0,8.114061356E0
7.158285344E1,2.255235314E-1,5.589035511E0,8.142177582E0
7.163285344E1,3.924229145E-1,5.545964718E0,8.179265976E0
7.168285344E1,4.103690982E-1,5.483751297E0,8.161319733E0
7.173285344E1,4.893322289E-1,5.494519234E0,8.320442200E0
7.178285344E1,3.942175210E-1,5.528018475E0,8.069794655E0
7.183285344E1,4.319044948E-1,5.575874805E0,8.023732185E0
7.188285344E1,3.768695593E-1,5.537590027E0,8.145766258E0
7.193285344E1,3.529413342E-1,5.601597786E0,8.231309891E0
7.198285344E1,4.761717021E-1,5.562714577E0,8.147561073E0
7.203285344E1,3.649054468E-1,5.543571949E0,8.070990562E0
7.208285344E1,4.743770957E-1,5.569892883E0,8.144570351E0
7.213285344E1,4.917250574E-1,5.548955917E0,7.993224144E0
7.218285344E1,4.498506486E-1,5.526223660E0,8.200202942E0
7.223285344E1,4.468596280E-1,5.535795212E0,8.213961601E0
7.228285344E1,3.990031779E-1,5.546562672E0,8.172685623E0
7.233285344E1,4.049852192E-1,5.571687698E0,8.066802979E0
7.238285344E1,4.414757788E-1,5.554339409E0,8.132007599E0
7.243285344E1,4.402793646E-1,5.542973518E0,8.136793137E0
7.248285344E1,4.773681164E-1,5.500501156E0,8.203194618E0
7.253285344E1,4.187439680E-1,5.543571949E0,8.238488197E0
7.258285344E1,3.894318938E-1,5.557330608E0,8.001000404E0
7.263285344E1,3.332005441E-1,5.639883041E0,8.176275253E0
7.268285344E1,4.354937077E-1,5.563910961E0,8.123034477E0
7.273285344E1,3.535395563E-1,5.516652584E0,8.105088234E0
7.278285344E1,5.060819983E-1,5.511867046E0,8.175676346E0
7.283285344E1,5.365904570E-1,5.509474277E0,8.178069115E0
7.288285344E1,3.972085714E-1,5.546562672E0,8.137392044E0
7.293285344E1,4.025924206E-1,5.599205017E0,8.124829292E0
7.298285344E1,3.020938635E-1,5.567500114E0,8.079963684E0
7.303285344E1,4.438686073E-1,5.538786411E0,8.143373489E0
7.308285344E1,4.348955154E-1,5.545366287E0,8.187641144E0
7.313285344E1,4.911268353E-1,5.520840168E0,8.203194618E0
7.318285344E1,4.749752879E-1,5.538786411E0,8.012965202E0
7.323285344E1,3.798605800E-1,5.600999832E0,8.099106789E0
7.328285344E1,3.517449200E-1,5.557330608E0,8.211568832E0
7.333285344E1,4.480560422E-1,5.569294930E0,8.027919769E0
7.338285344E1,3.852444589E-1,5.588437080E0,8.131409645E0
7.343285344E1,4.833501875E-1,5.522634506E0,8.245666504E0
7.348285344E1,4.241278172E-1,5.504688263E0,8.239086151E0
7.353285344E1,4.049852192E-1,5.595615864E0,8.054241180E0
7.358285344E1,3.912265003E-1,5.546562672E0,8.165507317E0
7.363285344E1,4.241278172E-1,5.560321808E0,8.098507881E0
7.368285344E1,3.798605800E-1,5.570491314E0,8.248059273E0
7.373285344E1,4.564309120E-1,5.542973518E0,8.223533630E0
7.378285344E1,4.713860750E-1,5.572884083E0,7.957331657E0
7.383285344E1,3.218346536E-1,5.576473236E0,8.056035995E0
7.388285344E1,4.055834413E-1,5.522634506E0,8.335397720E0
7.393285344E1,4.055834413E-1,5.522634506E0,8.335397720E0
7.398285344E1,4.055834413E-1,5.522634506E0,8.335397720E0
7.403285344E1,4.055834413E-1,5.522634506E0,8.335397720E0
7.408285344E1,3.972085714E-1,5.535196781E0,8.079963684E0
7.413285344E1,3.972085714E-1,5.535196781E0,8.079963684E0
7.418285344E1,3.972085714E-1,5.535196781E0,8.079963684E0
7.423285344E1,3.972085714E-1,5.535196781E0,8.079963684E0
7.428285344E1,3.972085714E-1,5.535196781E0,8.079963684E0
7.433285344E1,3.702892959E-1,5.546562672E0,8.121838570E0
7.438285344E1,3.702892959E-1,5.546562672E0,8.121838570E0
7.443285344E1,3.702892959E-1,5.546562672E0,8.121838570E0
7.448285344E1,3.702892959E-1,5.546562672E0,8.121838570E0
7.453285344E1,3.702892959E-1,5.546562672E0,8.121838570E0
7.458285344E1,4.486542344E-1,5.586044312E0,8.025527000E0
7.463285344E1,4.247260094E-1,5.586044312E0,8.258229256E0
7.468285344E1,3.433700502E-1,5.548955917E0,8.185846329E0
7.473285344E1,4.103690982E-1,5.595017433E0,7.943572998E0
7.478285344E1,4.474578202E-1,5.574080467E0,8.112865448E0
7.483285344E1,5.048855543E-1,5.535795212E0,8.201997757E0
7.488285344E1,5.048855543E-1,5.535795212E0,8.201997757E0
7.493285344E1,4.384847581E-1,5.561518192E0,8.164310455E0
7.498285344E1,3.840480447E-1,5.596812248E0,8.017151833E0
7.503285344E1,4.384847581E-1,5.552545071E0,8.158329010E0
7.508285344E1,4.211367965E-1,5.573482037E0,8.158926964E0
7.513285344E1,4.211367965E-1,5.573482037E0,8.158926964E0
7.518285344E1,4.211367965E-1,5.573482037E0,8.158926964E0
7.523285344E1,3.798605800E-1,5.566303730E0,8.195417404E0
7.528285344E1,4.241278172E-1,5.558526993E0,8.203194618E0
7.533285344E1,3.714857101E-1,5.582455158E0,8.163114548E0
7.538285344E1,3.026920557E-1,5.618347645E0,8.078767776E0
7.543285344E1,4.570291340E-1,5.559723377E0,8.165507317E0
7.548285344E1,5.335994363E-1,5.518447399E0,8.114660263E0
7.553285344E1,4.283152521E-1,5.554339409E0,8.096714020E0
7.558285344E1,4.725824594E-1,5.557928562E0,8.130811691E0
7.563285344E1,4.725824594E-1,5.557928562E0,8.130811691E0
7.568285344E1,3.637090325E-1,5.617151260E0,8.015955925E0
7.573285344E1,3.906283081E-1,5.569294930E0,8.084749222E0
7.578285344E1,4.007977843E-1,5.512465000E0,8.227122307E0
7.583285344E1,5.096712112E-1,5.552545071E0,8.249854088E0
7.588285344E1,4.414757788E-1,5.546562672E0,7.940581799E0
7.593285344E1,3.541377485E-1,5.595017433E0,8.251648903E0
7.598285344E1,3.684946895E-1,5.596812248E0,8.334799767E0
7.603285344E1,4.420739710E-1,5.574080467E0,7.937591076E0
7.608285344E1,4.420739710E-1,5.574080467E0,7.937591076E0
7.613285344E1,4.420739710E-1,5.574080467E0,7.937591076E0
7.618285344E1,4.755735099E-1,5.525027275E0,8.163712502E0
7.623285344E1,3.684946895E-1,5.587240696E0,7.963313580E0
7.628285344E1,3.260220885E-1,5.574080467E0,8.184649467E0
7.633285344E1,4.989035130E-1,5.603990555E0,8.082955360E0
7.638285344E1,4.989035130E-1,5.603990555E0,8.082955360E0
7.643285344E1,4.989035130E-1,5.603990555E0,8.082955360E0
7.648285344E1,5.012963414E-1,5.551348686E0,8.060222626E0
7.653285344E1,4.636093974E-1,5.588437080E0,8.075776100E0
7.658285344E1,4.636093974E-1,5.588437080E0,8.075776100E0
7.663285344E1,3.493520916E-1,5.568696499E0,8.151748657E0
7.668285344E1,5.491527915E-1,5.568098068E0,8.065607071E0
7.673285344E1,5.491527915E-1,5.568098068E0,8.065607071E0
7.678285344E1,5.491527915E-1,5.568098068E0,8.065607071E0
7.683285344E1,5.491527915E-1,5.568098068E0,8.065607071E0
7.688285344E1,5.491527915E-1,5.568098068E0,8.065607071E0
7.693285344E1,4.169493318E-1,5.600999832E0,7.990232944E0
7.698285344E1,3.906283081E-1,5.605186939E0,8.070990562E0
7.703285344E1,4.618147612E-1,5.565705299E0,8.295317650E0
7.708285344E1,4.618147612E-1,5.565705299E0,8.295317650E0
7.713285344E1,4.618147612E-1,5.565705299E0,8.295317650E0
7.718285344E1,4.737788737E-1,5.598606586E0,8.127222061E0
7.723285344E1,2.883351147E-1,5.632704735E0,8.235497475E0
7.728285344E1,3.493520916E-1,5.523232937E0,8.093124390E0
7.733285344E1,3.493520916E-1,5.523232937E0,8.093124390E0
7.738285344E1,3.493520916E-1,5.523232937E0,8.093124390E0
7.743285344E1,3.493520916E-1,5.523232937E0,8.093124390E0
7.748285344E1,3.128615618E-1,5.641677380E0,8.367700577E0
7.753285344E1,2.123630047E-1,5.716453075E0,7.825726509E0
7.758285344E1,5.060819983E-1,5.606383324E0,7.932207108E0
7.763285344E1,3.900300860E-1,5.577669621E0,8.256434441E0
7.768285344E1,3.511467278E-1,5.500501156E0,8.232506752E0
7.773285344E1,3.511467278E-1,5.500501156E0,8.232506752E0
7.778285344E1,2.913261652E-1,5.593821049E0,8.070990562E0
7.783285344E1,3.379862010E-1,5.623731613E0,8.207980156E0
7.788285344E1,2.901297510E-1,5.621338367E0,8.172087669E0
7.793285344E1,3.182454109E-1,5.617749214E0,8.020741463E0
7.798285344E1,4.612165689E-1,5.632106304E0,7.926823139E0
7.803285344E1,2.267199457E-1,5.591428280E0,8.176873207E0
7.808285344E1,4.259224236E-1,5.642873764E0,8.144570351E0
7.813285344E1,3.140579760E-1,5.536991596E0,8.233104706E0
7.818285344E1,2.488535494E-1,5.621338367E0,8.047062874E0
7.823285344E1,4.211367965E-1,5.669793129E0,8.044670105E0
7.828285344E1,3.481557071E-1,5.571687698E0,8.065607071E0
7.833285344E1,3.816552162E-1,5.578267574E0,8.215158463E0
7.838285344E1,3.062812984E-1,5.621338367E0,8.150551796E0
7.843285344E1,1.573280841E-1,5.609374523E0,8.083553314E0
7.848285344E1,4.253242314E-1,5.657230854E0,7.895716667E0
7.853285344E1,4.510470629E-1,5.751747608E0,7.930412292E0
7.858285344E1,3.230310678E-1,5.547161102E0,8.030911446E0
7.863285344E1,6.077769399E-1,5.504090309E0,8.371290207E0
7.868285344E1,9.810572863E-2,5.577071190E0,8.120043755E0
7.873285344E1,1.597209126E-1,5.709873199E0,7.996214867E0
7.878285344E1,1.974078715E-1,5.691926956E0,8.122436523E0
7.883285344E1,3.649054468E-2,5.590231895E0,8.269595146E0
7.888285344E1,2.781656384E-1,5.584847927E0,8.196015358E0
7.893285344E1,3.690928817E-1,5.516652584E0,8.067401886E0
7.898285344E1,4.462614357E-1,5.562116146E0,8.111668587E0
7.903285344E1,2.183450609E-1,5.659623623E0,7.986643791E0
7.908285344E1,2.009970993E-1,5.772684574E0,7.822735310E0
7.913285344E1,5.132604837E-1,5.616552830E0,8.123034477E0
7.918285344E1,5.132604837E-1,5.616552830E0,8.123034477E0
7.923285344E1,5.132604837E-1,5.616552830E0,8.123034477E0
7.928285344E1,3.481557071E-1,5.677569866E0,8.054839134E0
7.933285344E1,3.481557071E-1,5.638686657E0,8.041678429E0
7.938285344E1,3.008974493E-1,5.569892883E0,8.148757935E0
7.943285344E1,2.297109663E-1,5.638088226E0,8.187641144E0
7.948285344E1,2.297109663E-1,5.638088226E0,8.187641144E0
7.953285344E1,2.297109663E-1,5.638088226E0,8.187641144E0
7.958285344E1,2.051845491E-1,5.643472195E0,8.107481003E0
7.963285344E1,3.906283081E-1,5.650052547E0,8.122436523E0
7.968285344E1,2.715853751E-1,5.614160061E0,8.034500122E0
7.973285344E1,2.841476798E-1,5.679962635E0,7.923233986E0
7.978285344E1,2.841476798E-1,5.679962635E0,7.923233986E0
7.983285344E1,2.416750938E-1,5.573482037E0,8.169694901E0
7.988285344E1,2.416750938E-1,5.573482037E0,8.169694901E0
7.993285344E1,3.236292601E-1,5.634499073E0,8.172685623E0
7.998285344E1,2.051845491E-1,5.734997749E0,7.897511005E0
8.003285344E1,3.128615618E-1,5.562714577E0,8.202595711E0
8.008285344E1,3.463610709E-1,5.577071190E0,8.284550667E0
8.013285344E1,2.063809484E-1,5.791228771E0,7.823931694E0
8.018285344E1,3.457628787E-1,5.648257732E0,8.087141991E0
8.023285344E1,1.585244983E-1,5.660820007E0,8.115258217E0
8.028285344E1,3.481557071E-1,5.657230854E0,8.209774017E0
8.033285344E1,2.536391914E-1,5.610570908E0,7.990831375E0
8.038285344E1,2.261217386E-1,5.767300606E0,8.084749222E0
8.043285344E1,2.691925466E-1,5.743372440E0,8.071588516E0
8.048285344E1,4.492524564E-1,5.690730572E0,8.003992081E0
8.053285344E1,3.966103494E-1,5.569892883E0,8.020143509E0
8.058285344E1,5.066801906E-1,5.538187981E0,8.076972961E0
8.063285344E1,4.037888348E-1,5.623133183E0,8.040482521E0
8.068285344E1,1.914258152E-1,5.679364681E0,8.178668022E0
8.073285344E1,3.732803464E-1,5.715855122E0,8.176873207E0
8.078285344E1,2.279163599E-1,5.749952793E0,7.610372543E0
8.083285344E1,3.541377485E-1,5.682953835E0,7.915457249E0
8.088285344E1,3.798605800E-1,5.595615864E0,8.216354370E0
8.093285344E1,3.218346536E-1,5.635695457E0,8.096115112E0
8.098285344E1,2.398804724E-1,5.611767292E0,8.186444283E0
8.103285344E1,3.463610709E-1,5.724229813E0,7.976474285E0
8.108285344E1,1.668993831E-1,5.630909920E0,8.137392044E0
8.113285344E1,2.548356056E-1,5.660222054E0,8.165507317E0
8.118285344E1,1.423729509E-1,5.642873764E0,8.103293419E0
8.123285344E1,3.487538993E-1,5.693721294E0,7.972286701E0
8.128285344E1,1.860419661E-1,5.675775528E0,8.124829292E0
8.133285344E1,3.625126183E-1,5.682953835E0,8.066205025E0
8.138285344E1,3.355933726E-1,5.656632900E0,8.006982803E0
8.143285344E1,3.493520916E-1,5.649454117E0,7.983054638E0
8.148285344E1,3.756731451E-1,5.651846886E0,8.133802414E0
8.153285344E1,1.495514214E-1,5.680561066E0,8.165507317E0
8.158285344E1,2.859423161E-1,5.669195175E0,8.022536278E0
8.163285344E1,1.375873089E-1,5.695516109E0,8.121838570E0
8.168285344E1,3.146561682E-1,5.657829285E0,8.171489716E0
8.173285344E1,2.333002090E-1,5.669195175E0,8.017151833E0
8.178285344E1,2.715853751E-1,5.631507874E0,8.056633949E0
8.183285344E1,2.775674164E-1,5.705087185E0,8.057829857E0
8.188285344E1,2.309073806E-1,5.627918720E0,8.121239662E0
8.193285344E1,2.428714931E-1,5.691926956E0,8.053643227E0
8.198285344E1,1.453639716E-1,5.641677380E0,8.053044319E0
8.203285344E1,3.804588020E-1,5.687141418E0,8.056633949E0
8.208285344E1,1.178465188E-1,5.630909920E0,8.114061356E0
8.213285344E1,2.883351147E-1,5.640480995E0,8.085946083E0
8.218285344E1,3.170489967E-1,5.665606022E0,8.062017441E0
8.223285344E1,2.344966233E-1,5.676373482E0,8.041678429E0
8.228285344E1,3.409772217E-1,5.678168297E0,7.936394691E0
8.233285344E1,1.250249892E-1,5.663212776E0,8.079963684E0
8.238285344E1,3.062812984E-1,5.679962635E0,8.129016876E0
8.243285344E1,2.021935135E-1,5.632106304E0,8.162516594E0
8.248285344E1,1.776670814E-1,5.695516109E0,7.968697548E0
8.253285344E1,2.685943544E-1,5.675775528E0,8.084749222E0
8.258285344E1,2.506481707E-1,5.648856163E0,8.014161110E0
8.263285344E1,1.908276081E-1,5.706882000E0,8.219944000E0
8.268285344E1,3.326023519E-1,5.669195175E0,8.166703224E0
8.273285344E1,2.494517565E-1,5.681159019E0,7.882555962E0
8.278285344E1,2.620140910E-1,5.684150219E0,8.059026718E0
8.283285344E1,2.075773627E-1,5.676373482E0,8.217551231E0
8.288285344E1,2.572284341E-1,5.645267010E0,8.078168869E0
8.293285344E1,2.751746178E-1,5.669195175E0,8.034500122E0
8.298285344E1,2.183450609E-1,5.703890800E0,7.992027760E0
8.303285344E1,2.697907388E-1,5.656632900E0,8.079365730E0
8.308285344E1,1.513460279E-1,5.673382282E0,8.139784813E0
8.313285344E1,2.973082066E-1,5.657230854E0,8.171489716E0
8.318285344E1,2.428714931E-1,5.685945034E0,8.034500122E0
8.323285344E1,9.272187948E-2,5.705685616E0,8.070990562E0
8.328285344E1,3.595215976E-1,5.663212776E0,7.993224144E0
8.333285344E1,2.524427772E-1,5.676971912E0,7.995018482E0
8.338285344E1,3.218346536E-1,5.675177097E0,8.123034477E0
8.343285344E1,2.440679073E-1,5.664409637E0,8.120043755E0
8.348285344E1,2.285145670E-1,5.722435474E0,7.962117195E0
8.353285344E1,1.585244983E-1,5.688337803E0,8.033902168E0
8.358285344E1,2.117647976E-1,5.690730572E0,8.136195183E0
8.363285344E1,2.219343036E-1,5.624927998E0,8.121239662E0
8.368285344E1,3.284149170E-1,5.684150219E0,7.992027760E0
8.373285344E1,2.512463629E-1,5.669195175E0,8.101499557E0
8.378285344E1,2.045863420E-1,5.657829285E0,8.083553314E0
8.383285344E1,2.333002090E-1,5.681757450E0,8.076972961E0
8.388285344E1,2.009970993E-1,5.717051506E0,7.984251022E0
8.393285344E1,2.201396823E-1,5.685945034E0,8.061419487E0
8.398285344E1,2.572284341E-1,5.681757450E0,8.106883049E0
8.403285344E1,2.135594189E-1,5.645267010E0,8.069794655E0
8.408285344E1,3.834498227E-1,5.672185898E0,7.959724426E0
8.413285344E1,2.362912297E-1,5.721837044E0,8.115258217E0
8.418285344E1,2.913261652E-1,5.658427238E0,8.026723862E0
8.423285344E1,2.416750938E-1,5.748157978E0,7.960920811E0
8.428285344E1,1.776670814E-1,5.686542988E0,8.055437088E0
8.433285344E1,2.536391914E-1,5.673980713E0,8.065607071E0
8.438285344E1,2.033899277E-1,5.624329567E0,8.097311974E0
8.443285344E1,2.955136001E-1,5.718846321E0,8.073982239E0
8.448285344E1,9.690931439E-2,5.705087185E0,8.154739380E0
8.453285344E1,1.663011760E-1,5.632106304E0,7.998608112E0
8.458285344E1,2.733799815E-1,5.705685616E0,7.893921852E0
8.463285344E1,2.973082066E-1,5.612963676E0,8.106285095E0
8.468285344E1,2.883351147E-1,5.649454117E0,8.172685623E0
8.473285344E1,2.398804724E-1,5.651248932E0,8.173283577E0
8.478285344E1,1.435693651E-1,5.782854080E0,7.826922894E0
8.483285344E1,1.507478207E-1,5.743372440E0,7.979465485E0
8.488285344E1,3.242274821E-1,5.653043270E0,8.012965202E0
8.493285344E1,1.800599098E-1,5.625525951E0,8.209176064E0
8.498285344E1,3.158525825E-1,5.660222054E0,8.148159027E0
8.503285344E1,2.135594189E-1,5.702096462E0,7.899305820E0
8.508285344E1,2.027917206E-1,5.714658737E0,8.023134232E0
8.513285344E1,1.633101404E-1,5.681757450E0,8.118248940E0
8.518285344E1,1.872383654E-1,5.689534187E0,8.096714020E0
8.523285344E1,1.591227055E-1,5.650052547E0,8.170292854E0
8.528285344E1,3.284149170E-1,5.682953835E0,7.975875854E0
8.533285344E1,2.656033039E-1,5.672185898E0,7.993822098E0
8.538285344E1,2.656033039E-1,5.672185898E0,7.993822098E0
8.538285344E1,2.727817893E-1,5.684748173E0,8.041678429E0
8.548285344E1,2.009970993E-1,5.694917679E0,8.002795219E0
8.553285344E1,2.925225794E-1,5.707480431E0,8.118846893E0
8.558285344E1,1.345962733E-1,5.672784328E0,8.110472679E0
8.563285344E1,3.637090325E-1,5.703292847E0,7.987840176E0
8.568285344E1,1.680957973E-1,5.652445316E0,8.106285095E0
8.573285344E1,3.708875179E-1,5.721239090E0,8.035098076E0
8.578285344E1,3.708875179E-1,5.721239090E0,8.035098076E0
8.583285344E1,3.164508045E-1,5.727221012E0,7.986045361E0
8.588285344E1,2.458625287E-1,5.751747608E0,8.008178711E0
8.593285344E1,2.386840582E-1,5.699703693E0,8.056633949E0
8.598285344E1,2.255235314E-1,5.705087185E0,8.083553314E0
8.603285344E1,2.141576260E-1,5.700301647E0,8.066205025E0
8.608285344E1,2.141576260E-1,5.700301647E0,8.066205025E0
8.613285344E1,1.842473447E-1,5.682355404E0,7.963912010E0
8.618285344E1,3.457628787E-1,5.730810165E0,8.019545555E0
8.623285344E1,2.518445849E-1,5.626722336E0,8.122436523E0
8.628285344E1,2.859423161E-1,5.769095421E0,8.016553879E0
8.633285344E1,2.207378894E-1,5.679364681E0,8.201399803E0
8.638285344E1,2.207378894E-1,5.701498032E0,7.857431412E0
8.643285344E1,3.224328458E-1,5.718247890E0,8.012965202E0
8.648285344E1,2.817548811E-1,5.654240131E0,8.148159027E0
8.653285344E1,2.991028428E-1,5.688935757E0,7.990831375E0
8.658285344E1,2.769692242E-1,5.656632900E0,8.044670105E0
8.663285344E1,1.854437590E-1,5.768496990E0,8.016553879E0
8.668285344E1,2.536391914E-1,5.767300606E0,8.020741463E0
8.673285344E1,2.937189937E-1,5.612365723E0,8.030911446E0
8.678285344E1,3.702892959E-1,5.629713535E0,8.194221497E0
8.683285344E1,3.571287692E-1,5.595615864E0,8.161917686E0
8.688285344E1,2.667997181E-1,5.717649937E0,8.009973526E0
8.693285344E1,2.548356056E-1,5.703890800E0,8.024929047E0
8.698285344E1,2.883351147E-1,5.712265968E0,8.060222626E0
8.703285344E1,1.848455518E-1,5.712265968E0,8.070392609E0
8.708285344E1,3.122633696E-1,5.690730572E0,8.108079910E0
8.713285344E1,1.519442350E-1,5.804987907E0,7.726424217E0
8.718285344E1,3.367897868E-1,5.660222054E0,7.935198307E0
8.723285344E1,6.029912829E-1,5.528018475E0,8.324031830E0
8.728285344E1,1.986042857E-1,5.565705299E0,8.255238533E0
8.733285344E1,1.974078715E-1,5.734997749E0,7.960322857E0
8.738285344E1,1.926222295E-1,5.784050465E0,7.916653633E0
8.743285344E1,1.645065546E-1,5.769693375E0,7.814360619E0
8.748285344E1,8.793623000E-2,5.761917114E0,8.113463402E0
8.753285344E1,3.026920557E-1,5.657230854E0,8.226524353E0
8.758285344E1,6.185446382E-1,5.561518192E0,8.098507881E0
8.763285344E1,5.294120312E-1,5.547161102E0,8.003393173E0
8.768285344E1,2.189432681E-1,5.653641701E0,7.869395256E0
8.773285344E1,3.702892959E-1,5.660820007E0,8.244470596E0
8.778285344E1,1.351944804E-1,5.652445316E0,8.093722343E0
8.783285344E1,1.854437590E-1,5.713462353E0,8.045866013E0
8.788285344E1,4.564309120E-1,5.634499073E0,7.971688747E0
8.793285344E1,3.589234054E-1,5.634499073E0,7.954340458E0
8.798285344E1,3.792623878E-1,5.589035511E0,8.237890244E0
8.803285344E1,3.631108403E-1,5.694917679E0,8.099106789E0
8.808285344E1,2.261217386E-1,5.695516109E0,8.008777618E0
8.813285344E1,2.446661144E-1,5.663811207E0,7.986643791E0
8.818285344E1,2.446661144E-1,5.663811207E0,7.986643791E0
8.823285344E1,2.703889608E-1,5.629713535E0,8.252246857E0
8.828285344E1,2.662015259E-1,5.660820007E0,8.093124390E0
8.833285344E1,2.817548811E-1,5.641079426E0,8.016553879E0
8.838285344E1,3.637090325E-1,5.699703693E0,8.029116631E0
8.843285344E1,3.008974493E-1,5.643472195E0,8.033902168E0
8.848285344E1,3.918247223E-1,5.673382282E0,8.002795219E0
8.853285344E1,4.402793646E-1,5.630311489E0,7.984251022E0
8.858285344E1,3.714857101E-1,5.601597786E0,8.198408127E0
8.863285344E1,2.135594189E-1,5.693123341E0,8.151748657E0
8.868285344E1,2.865405083E-1,5.653043270E0,8.070392609E0
8.873285344E1,1.381855011E-1,5.752345562E0,7.938787460E0
8.878285344E1,2.985046208E-1,5.740979671E0,7.935198307E0
8.883285344E1,4.636093974E-1,5.557330608E0,8.245068550E0
8.888285344E1,1.806581169E-1,5.650052547E0,8.125427246E0
8.893285344E1,3.032902777E-1,5.744568825E0,7.959126472E0
8.898285344E1,2.279163599E-1,5.705685616E0,7.960322857E0
8.903285344E1,1.668993831E-1,5.704489231E0,8.084151268E0
8.908285344E1,1.525424421E-1,5.704489231E0,8.087141991E0
8.913285344E1,4.061816335E-1,5.560919762E0,8.107481003E0
8.918285344E1,4.259224236E-1,5.639883041E0,7.877770424E0
8.923285344E1,5.132604837E-1,5.666802406E0,7.973483086E0
8.928285344E1,4.797609448E-1,5.557928562E0,8.380263329E0
8.933285344E1,1.716850251E-1,5.649454117E0,8.152346611E0
8.938285344E1,1.357926875E-1,5.709274769E0,8.021339417E0
8.943285344E1,1.357926875E-1,5.709274769E0,8.021339417E0
8.948285344E1,3.020938635E-1,5.757131100E0,7.948358536E0
8.953285344E1,4.319044948E-1,5.602794170E0,8.155337334E0
8.958285344E1,2.973082066E-1,5.519643784E0,8.265407562E0
8.963285344E1,7.537391037E-2,5.647061348E0,8.180462837E0
8.968285344E1,1.818545163E-1,5.847460270E0,7.990831375E0
8.973285344E1,1.854437590E-1,5.712265968E0,7.825128078E0
8.978285344E1,1.854437590E-1,5.712265968E0,7.825128078E0
8.983285344E1,3.367897868E-1,5.624927998E0,8.163712502E0
8.988285344E1,3.966103494E-1,5.665606022E0,7.954340458E0
8.993285344E1,2.823530734E-1,5.592624664E0,7.878966808E0
8.998285344E1,3.266202807E-1,5.599802971E0,8.139784813E0
9.003285344E1,5.144568533E-2,5.630311489E0,8.365905762E0
9.008285344E1,5.144568533E-2,5.630311489E0,8.365905762E0
9.013285344E1,1.256231815E-1,5.804389477E0,7.823931694E0
9.018285344E1,1.256231815E-1,5.804389477E0,7.823931694E0
9.023285344E1,1.256231815E-1,5.804389477E0,7.823931694E0
9.028285344E1,6.370890141E-1,5.471786976E0,8.365905762E0
9.033285344E1,6.370890141E-1,5.471786976E0,8.365905762E0
9.038285344E1,4.181457460E-1,5.743372440E0,7.739584923E0
9.043285344E1,4.181457460E-1,5.743372440E0,7.739584923E0
9.048285344E1,4.181457460E-1,5.743372440E0,7.739584923E0
9.053285344E1,4.522434771E-1,5.592026711E0,7.989036560E0
9.058285344E1,4.492524564E-1,5.403591633E0,8.133204460E0
9.063285344E1,4.492524564E-1,5.403591633E0,8.133204460E0
9.068285344E1,6.107679605E-1,5.388038158E0,8.518448830E0
9.073285344E1,3.625126183E-1,5.495715618E0,8.106883049E0
9.078285344E1,3.505485058E-1,5.623133183E0,8.051250458E0
9.083285344E1,2.171486616E-1,5.830112457E0,8.000402451E0
9.088285344E1,2.662015259E-1,5.681757450E0,8.018348694E0
9.093285344E1,3.900300860E-1,5.580062389E0,8.035696983E0
9.098285344E1,3.900300860E-1,5.580062389E0,8.035696983E0
9.103285344E1,4.426721931E-1,5.562714577E0,8.177471161E0
9.108285344E1,3.792623878E-1,5.572285652E0,7.848458290E0
9.113285344E1,3.792623878E-1,5.572285652E0,7.848458290E0
9.118285344E1,3.667000830E-1,5.566901684E0,8.356334686E0
9.123285344E1,3.667000830E-1,5.566901684E0,8.356334686E0
9.128285344E1,2.841476798E-1,5.669793129E0,7.938189030E0
9.133285344E1,3.355933726E-1,5.673382282E0,8.028517723E0
9.138285344E1,3.355933726E-1,5.673382282E0,8.028517723E0
9.143285344E1,3.882354796E-1,5.620141983E0,8.042277336E0
9.148285344E1,5.228317380E-1,5.538187981E0,7.928019524E0
9.153285344E1,5.228317380E-1,5.538187981E0,7.928019524E0
9.158285344E1,5.228317380E-1,5.538187981E0,7.928019524E0
9.163285344E1,5.228317380E-1,5.538187981E0,7.928019524E0
9.168285344E1,5.228317380E-1,5.538187981E0,7.928019524E0
9.173285344E1,2.847459018E-1,5.691926956E0,8.187641144E0
9.178285344E1,2.847459018E-1,5.691926956E0,8.187641144E0
9.183285344E1,2.847459018E-1,5.691926956E0,8.187641144E0
9.188285344E1,2.847459018E-1,5.691926956E0,8.187641144E0
9.193285344E1,2.847459018E-1,5.691926956E0,8.187641144E0
9.198285344E1,2.847459018E-1,5.691926956E0,8.187641144E0
9.203285344E1,2.847459018E-1,5.691926956E0,8.187641144E0
9.208285344E1,2.297109663E-1,5.708078384E0,7.937591076E0
9.213285344E1,2.297109663E-1,5.708078384E0,7.937591076E0
9.218285344E1,2.297109663E-1,5.708078384E0,7.937591076E0
9.223285344E1,2.297109663E-1,5.708078384E0,7.937591076E0
9.228285344E1,2.321037948E-1,5.578866005E0,8.232506752E0
9.233285344E1,2.321037948E-1,5.578866005E0,8.232506752E0
9.238285344E1,2.321037948E-1,5.578866005E0,8.232506752E0
9.243285344E1,2.321037948E-1,5.578866005E0,8.232506752E0
9.248285344E1,2.321037948E-1,5.578866005E0,8.232506752E0
9.253285344E1,4.265206456E-1,5.559723377E0,8.166105270E0
9.258285344E1,4.265206456E-1,5.559723377E0,8.166105270E0
9.263285344E1,4.265206456E-1,5.559723377E0,8.166105270E0
9.268285344E1,4.265206456E-1,5.559723377E0,8.166105270E0
9.273285344E1,4.265206456E-1,5.559723377E0,8.166105270E0
9.278285344E1,2.374876440E-1,5.633901119E0,8.166105270E0
9.283285344E1,2.374876440E-1,5.633901119E0,8.166105270E0
9.288285344E1,2.374876440E-1,5.633901119E0,8.166105270E0
9.293285344E1,2.374876440E-1,5.633901119E0,8.166105270E0
9.298285344E1,3.409772366E-2,5.708078384E0,8.154739380E0
9.303285344E1,2.697907388E-1,5.705087185E0,8.075178146E0
9.308285344E1,2.697907388E-1,5.705087185E0,8.075178146E0
9.313285344E1,2.697907388E-1,5.705087185E0,8.075178146E0
9.318285344E1,3.684946895E-1,5.550152302E0,8.186444283E0
9.323285344E1,3.684946895E-1,5.550152302E0,8.186444283E0
9.328285344E1,1.513460279E-1,5.774479389E0,8.066802979E0
9.333285344E1,2.207378894E-1,5.676373482E0,7.730013371E0
9.338285344E1,4.983053207E-1,5.459224701E0,8.175676346E0
9.343285344E1,3.864408433E-1,5.420939922E0,8.580661774E0
9.348285344E1,4.121637046E-1,5.652445316E0,8.023732185E0
9.353285344E1,3.487538993E-1,5.658427238E0,8.082955360E0
9.358285344E1,3.230310678E-1,5.577071190E0,7.918448448E0
9.363285344E1,1.920240223E-1,5.671587944E0,8.206783295E0
9.368285344E1,1.668993831E-1,5.681159019E0,8.168498039E0
9.373285344E1,5.383851007E-2,5.769693375E0,7.708477974E0
9.378285344E1,2.153540403E-2,5.696114540E0,7.874779224E0
9.383285344E1,4.187439680E-1,5.531607628E0,8.239086151E0
9.388285344E1,2.871387303E-1,5.459823132E0,8.349754333E0
9.393285344E1,3.050848842E-1,5.489135265E0,8.241478920E0
9.398285344E1,3.134597540E-1,5.662016392E0,7.950751305E0
9.403285344E1,8.135596663E-2,5.621338367E0,8.151150703E0
9.408285344E1,-4.127619043E-2,5.658427238E0,8.020143509E0
9.413285344E1,5.742774159E-2,5.732006550E0,8.200202942E0
9.418285344E1,6.580262631E-2,5.602196217E0,8.165507317E0
9.423285344E1,1.298106313E-1,5.633302689E0,7.964509964E0
9.428285344E1,1.740778536E-1,5.607579708E0,8.111070633E0
9.433285344E1,2.398804724E-1,5.612963676E0,8.098507881E0
9.438285344E1,2.111666054E-1,5.587839127E0,8.048258781E0
9.443285344E1,1.292124242E-1,5.610570908E0,8.206185341E0
9.448285344E1,2.572284266E-2,5.615356445E0,8.246863365E0
9.453285344E1,7.058826834E-2,5.674578667E0,7.942376614E0
9.458285344E1,4.486542568E-2,5.760122299E0,7.919046402E0
9.463285344E1,2.057827413E-1,5.566303730E0,8.176275253E0
9.468285344E1,2.937189937E-1,5.485546112E0,8.138587952E0
9.473285344E1,1.692921966E-1,5.565107346E0,8.257631302E0
9.478285344E1,1.519442350E-1,5.612365723E0,8.116454124E0
9.483285344E1,9.152546525E-2,5.673980713E0,8.057829857E0
9.488285344E1,-4.007977992E-2,5.721837044E0,8.030911446E0
9.493285344E1,7.776673883E-2,5.683551788E0,8.008777618E0
9.498285344E1,1.591227055E-1,5.614758492E0,8.166105270E0
9.503285344E1,1.866401732E-1,5.559125423E0,8.061419487E0
9.508285344E1,1.579262912E-1,5.617151260E0,8.020741463E0
9.513285344E1,9.272187948E-2,5.641677380E0,8.243273735E0
9.518285344E1,1.196411345E-2,5.644070625E0,8.180462837E0
9.523285344E1,1.196411345E-2,5.644070625E0,8.180462837E0
9.528285344E1,4.546362907E-2,5.667998791E0,8.187042236E0
9.533285344E1,4.546362907E-2,5.667998791E0,8.187042236E0
9.538285344E1,4.546362907E-2,5.667998791E0,8.187042236E0
9.543285344E1,2.057827413E-1,5.602794170E0,7.982456207E0
9.548285344E1,2.057827413E-1,5.602794170E0,7.982456207E0
9.553285344E1,1.016949639E-1,5.641079426E0,8.173283577E0
9.558285344E1,1.016949639E-1,5.641079426E0,8.173283577E0
9.563285344E1,1.016949639E-1,5.641079426E0,8.173283577E0
9.568285344E1,2.267199457E-1,5.594419479E0,8.102695465E0
9.573285344E1,2.267199457E-1,5.594419479E0,8.102695465E0
9.578285344E1,3.290131316E-2,5.625525951E0,8.100900650E0
9.583285344E1,9.511470050E-2,5.548955917E0,8.289934158E0
9.588285344E1,-5.742774159E-2,5.770291805E0,7.938189030E0
9.593285344E1,-1.537388563E-1,5.739185333E0,8.132605553E0
9.598285344E1,4.067798331E-2,5.851647854E0,7.928617954E0
9.603285344E1,1.513460279E-1,5.748157978E0,8.117053032E0
9.608285344E1,3.224328458E-1,5.520241737E0,8.041678429E0
9.613285344E1,3.224328458E-1,5.520241737E0,8.041678429E0
9.618285344E1,3.224328458E-1,5.520241737E0,8.041678429E0
9.623285344E1,1.357926875E-1,5.670391560E0,7.852047443E0
9.628285344E1,1.627119333E-1,5.667998791E0,7.926225185E0
9.633285344E1,-8.315058798E-2,5.760122299E0,8.271389961E0
9.638285344E1,-8.315058798E-2,5.760122299E0,8.271389961E0
9.643285344E1,-8.315058798E-2,5.760122299E0,8.271389961E0
9.648285344E1,-8.315058798E-2,5.760122299E0,8.271389961E0
9.653285344E1,3.074777126E-1,5.584847927E0,8.163114548E0
9.658285344E1,1.603191197E-1,5.630909920E0,8.075178146E0
9.663285344E1,-4.785645381E-2,5.721239090E0,7.980063438E0
9.668285344E1,-2.087737769E-1,5.814558983E0,8.074580193E0
9.673285344E1,-2.751746029E-2,5.726024628E0,8.081160545E0
9.678285344E1,7.178467698E-3,5.650650501E0,7.978269100E0
9.683285344E1,2.703889608E-1,5.630909920E0,8.206185341E0
9.688285344E1,3.062812984E-1,5.660222054E0,7.880761147E0
9.693285344E1,1.674975902E-1,5.592624664E0,7.861618996E0
9.698285344E1,1.256231815E-1,5.532804012E0,8.323433876E0
9.703285344E1,-4.791627228E-1,5.941378593E0,7.737790108E0
9.708285344E1,-8.303094506E-1,5.988636971E0,7.668398380E0
9.713285344E1,-3.631108403E-1,5.868995667E0,8.375477791E0
9.718285344E1,-2.392822653E-1,5.863611698E0,7.878966808E0
9.723285344E1,8.015955985E-2,5.595017433E0,7.977072716E0
9.728285344E1,-8.973085135E-2,5.656034470E0,8.130811691E0
9.733285344E1,-2.697907388E-1,5.738586903E0,7.911269665E0
9.738285344E1,-1.387837082E-1,5.723033428E0,8.073982239E0
9.743285344E1,-1.351944804E-1,5.754738331E0,8.038687706E0
9.748285344E1,-1.166501045E-1,5.706882000E0,8.065607071E0
9.753285344E1,-2.985046208E-1,5.808577061E0,7.850851059E0
9.758285344E1,-2.763710022E-1,5.761318684E0,7.925028801E0
9.763285344E1,-2.763710022E-1,5.761318684E0,7.925028801E0
9.768285344E1,-2.763710022E-1,5.761318684E0,7.925028801E0
9.773285344E1,-2.763710022E-1,5.761318684E0,7.925028801E0
9.778285344E1,-2.763710022E-1,5.761318684E0,7.925028801E0
9.783285344E1,-5.922235921E-2,5.778666496E0,7.968697548E0
9.788285344E1,-5.922235921E-2,5.778666496E0,7.968697548E0
9.793285344E1,-7.178468257E-2,5.739783287E0,7.987840176E0
9.798285344E1,-7.178468257E-2,5.739783287E0,7.987840176E0
9.803285344E1,-2.033899277E-1,5.715256691E0,8.154739380E0
9.808285344E1,-2.033899277E-1,5.715256691E0,8.154739380E0
9.813285344E1,-2.033899277E-1,5.715256691E0,8.154739380E0
9.818285344E1,-2.033899277E-1,5.715256691E0,8.154739380E0
9.823285344E1,-2.033899277E-1,5.715256691E0,8.154739380E0
9.828285344E1,-1.788634956E-1,5.727818966E0,8.127222061E0
9.833285344E1,-3.349951655E-2,5.741578102E0,7.837690353E0
9.838285344E1,-1.280160099E-1,5.760122299E0,7.977670670E0
9.843285344E1,-6.759724021E-2,5.730810165E0,7.965706348E0
9.848285344E1,-1.226321608E-1,5.748157978E0,8.012965202E0
9.853285344E1,-9.212367237E-2,5.730212212E0,7.944170952E0
9.858285344E1,-1.459621787E-1,5.743970871E0,7.962117195E0
9.863285344E1,-1.339980662E-1,5.754140377E0,8.026124954E0
9.868285344E1,-1.549352705E-1,5.750551224E0,8.069794655E0
9.873285344E1,-8.075776696E-2,5.751747608E0,8.018348694E0
9.878285344E1,-1.674975902E-1,5.737390518E0,7.956733704E0
9.883285344E1,-9.571290761E-2,5.777470112E0,7.893323898E0
9.888285344E1,-1.405783296E-1,5.775077343E0,7.977670670E0
9.893285344E1,-8.494520187E-2,5.796612740E0,8.005785942E0
9.898285344E1,-1.160518974E-1,5.787639618E0,7.908278942E0
9.903285344E1,-6.221338734E-2,5.777470112E0,7.912466049E0
9.908285344E1,-9.272187948E-2,5.770291805E0,7.929215908E0
9.913285344E1,-1.692921966E-1,5.784648895E0,8.044670105E0
9.918285344E1,-1.555334777E-1,5.760122299E0,7.987242222E0
9.923285344E1,-1.387837082E-1,5.804987907E0,8.006384850E0
9.928285344E1,-1.070788130E-1,5.772684574E0,7.986643791E0
9.933285344E1,-1.070788130E-1,5.772684574E0,7.986643791E0
9.938285344E1,-1.704886109E-1,5.818148136E0,7.909475327E0
9.943285344E1,-1.866401732E-1,5.790630817E0,8.053044319E0
9.948285344E1,-1.920240223E-1,5.792425632E0,7.975875854E0
9.953285344E1,-7.238288224E-2,5.788238049E0,8.005785942E0
9.958285344E1,-2.099701911E-1,5.786443233E0,7.906484127E0
9.963285344E1,-1.645065546E-1,5.777470112E0,8.053044319E0
9.968285344E1,-1.465603858E-1,5.791827202E0,7.981259823E0
9.973285344E1,-1.124626622E-1,5.779862881E0,7.962715626E0
9.978285344E1,-1.298106313E-1,5.788836002E0,8.017750740E0
9.983285344E1,-8.434699476E-2,5.793622017E0,7.968697548E0
9.988285344E1,-1.411765367E-1,5.782256126E0,7.985447407E0
9.993285344E1,-1.244267747E-1,5.800800323E0,7.966903210E0
9.998285344E1,-1.609173268E-1,5.816353798E0,7.877770424E0
1.000328534E2,-1.878365725E-1,5.815755367E0,8.028517723E0
1.000828534E2,-1.788634956E-1,5.809175014E0,7.947162151E0
1.001328534E2,-1.399801224E-1,5.810371399E0,7.957331657E0
1.001828534E2,-1.375873089E-1,5.810969830E0,7.958528042E0
1.002328534E2,-1.854437590E-1,5.810371399E0,8.005187988E0
1.002828534E2,-1.854437590E-1,5.810371399E0,8.005187988E0
1.003328534E2,-1.812563092E-1,5.825924873E0,7.946564198E0
1.003828534E2,-1.525424421E-1,5.834300041E0,7.947760582E0
1.004328534E2,-1.663011760E-1,5.801996708E0,7.938787460E0
1.004828534E2,-1.369891018E-1,5.854040623E0,7.972885132E0
1.005328534E2,-1.304088384E-1,5.830112457E0,7.849654675E0
1.005828534E2,-1.280160099E-1,5.844469070E0,8.010572433E0
1.006328534E2,-2.063809484E-1,5.852844238E0,7.946564198E0
1.006828534E2,-1.776670814E-1,5.837889194E0,7.884948730E0
1.007328534E2,-1.483550072E-1,5.827121258E0,7.855038643E0
1.007828534E2,-1.818545163E-1,5.819942951E0,8.001599312E0
1.008328534E2,-1.447657645E-1,5.839085579E0,7.923233986E0
1.008828534E2,-1.980060786E-1,5.835496426E0,7.975277901E0
1.009328534E2,-1.292124242E-1,5.834897995E0,7.846663475E0
1.009828534E2,-2.141576260E-1,5.848058701E0,7.907082558E0
1.010328534E2,-1.471585929E-1,5.842674732E0,7.964509964E0
1.010828534E2,-1.471585929E-1,5.842674732E0,7.964509964E0
1.011328534E2,-1.441675574E-1,5.846263885E0,7.891529083E0
1.011828534E2,-1.393819153E-1,5.832505226E0,7.956733704E0
1.012328534E2,-1.393819153E-1,5.832505226E0,7.956733704E0
1.012828534E2,-1.052841991E-1,5.816353798E0,7.948358536E0
1.013328534E2,-1.501496136E-1,5.809175014E0,7.962117195E0
1.013828534E2,-1.363908947E-1,5.821737289E0,7.952546120E0
1.014328534E2,-1.363908947E-1,5.821737289E0,7.952546120E0
1.014828534E2,-1.363908947E-1,5.821737289E0,7.952546120E0
1.015328534E2,-1.363908947E-1,5.821737289E0,7.952546120E0
1.015828534E2,-9.690931439E-2,5.782256126E0,7.907082558E0
1.016328534E2,-9.690931439E-2,5.782256126E0,7.907082558E0
1.016828534E2,-9.690931439E-2,5.782256126E0,7.907082558E0
1.017328534E2,-9.690931439E-2,5.782256126E0,7.907082558E0
1.017828534E2,-9.690931439E-2,5.782256126E0,7.907082558E0
1.018328534E2,-9.690931439E-2,5.782256126E0,7.907082558E0
1.018828534E2,-4.785645381E-2,5.804389477E0,7.962715626E0
1.019328534E2,-5.623133108E-2,5.776872158E0,7.935198307E0
1.019828534E2,-1.974078640E-2,5.793622017E0,8.029116631E0
1.020328534E2,-1.974078640E-2,5.793622017E0,8.029116631E0
1.020828534E2,-1.974078640E-2,5.793622017E0,8.029116631E0
1.021328534E2,-1.914258115E-2,5.793622017E0,7.990831375E0
1.021828534E2,-1.914258115E-2,5.793622017E0,7.990831375E0
1.022328534E2,-1.914258115E-2,5.793622017E0,7.990831375E0
1.022828534E2,-1.914258115E-2,5.793622017E0,7.990831375E0
1.023328534E2,-1.914258115E-2,5.793622017E0,7.990831375E0
1.023828534E2,-2.536391914E-1,5.837290764E0,7.890930653E0
1.024328534E2,-2.536391914E-1,5.837290764E0,7.890930653E0
1.024828534E2,-2.536391914E-1,5.837290764E0,7.890930653E0
1.025328534E2,-2.536391914E-1,5.837290764E0,7.890930653E0
1.025828534E2,-2.536391914E-1,5.837290764E0,7.890930653E0
1.026328534E2,-9.092725813E-2,5.820540905E0,7.986643791E0
1.026828534E2,-9.092725813E-2,5.820540905E0,7.986643791E0
1.027328534E2,-8.973085135E-2,5.840879917E0,7.797012806E0
1.027828534E2,-1.262213886E-1,5.804389477E0,7.956733704E0
1.028328534E2,-1.459621787E-1,5.844469070E0,8.031509399E0
1.028828534E2,-1.896311939E-1,5.839683533E0,7.869395256E0
1.029328534E2,-1.028913707E-1,5.826523304E0,7.941180229E0
1.029828534E2,-8.673982322E-2,5.828916073E0,7.899305820E0
1.030328534E2,-5.324030295E-2,5.855835438E0,7.924430370E0
1.030828534E2,-1.280160099E-1,5.828916073E0,7.911868095E0
1.031328534E2,-1.310070455E-1,5.802595139E0,7.820342541E0
1.031828534E2,-1.333998591E-1,5.871388435E0,7.959126472E0
1.032328534E2,-1.860419661E-1,5.840281963E0,7.992625713E0
1.032828534E2,-1.860419661E-1,5.840281963E0,7.992625713E0
1.033328534E2,-1.202393398E-1,5.818746567E0,7.891529083E0
1.033828534E2,-1.363908947E-1,5.853442192E0,7.889734268E0
1.034328534E2,-1.328016520E-1,5.853442192E0,7.975277901E0
1.034828534E2,-1.752742529E-1,5.854040623E0,7.885547161E0
1.035328534E2,-1.100698411E-1,5.851049423E0,7.898109436E0
1.035828534E2,-1.070788130E-1,5.862415314E0,7.956733704E0
1.036328534E2,-1.070788130E-1,5.862415314E0,7.956733704E0
1.036828534E2,-1.070788130E-1,5.862415314E0,7.956733704E0
1.037328534E2,-1.579262912E-1,5.853442192E0,7.931608677E0
1.037828534E2,-7.537391037E-2,5.842674732E0,7.936992645E0
1.038328534E2,-7.537391037E-2,5.842674732E0,7.936992645E0
1.038828534E2,-7.537391037E-2,5.842674732E0,7.936992645E0
1.039328534E2,-7.537391037E-2,5.842674732E0,7.936992645E0
1.039828534E2,-7.537391037E-2,5.842674732E0,7.936992645E0
1.040328534E2,-8.315058798E-2,5.900700569E0,7.864011765E0
1.040828534E2,-8.315058798E-2,5.900700569E0,7.864011765E0
1.041328534E2,-1.333998591E-1,5.880361557E0,7.887341499E0
1.041828534E2,-1.333998591E-1,5.880361557E0,7.887341499E0
1.042328534E2,-1.333998591E-1,5.880361557E0,7.887341499E0
1.042828534E2,-1.333998591E-1,5.880361557E0,7.887341499E0
1.043328534E2,-1.657029688E-1,5.868995667E0,7.950153351E0
1.043828534E2,-1.172483116E-1,5.881557941E0,7.981259823E0
1.044328534E2,-1.172483116E-1,5.881557941E0,7.981259823E0
1.044828534E2,-1.172483116E-1,5.881557941E0,7.981259823E0
1.045328534E2,-1.172483116E-1,5.881557941E0,7.981259823E0
1.045828534E2,-1.172483116E-1,5.881557941E0,7.981259823E0
1.046328534E2,-1.034895778E-1,5.863013744E0,7.932207108E0
1.046828534E2,-1.100698411E-1,5.870192051E0,7.858627796E0
1.047328534E2,-1.531406492E-1,5.870790482E0,7.902296543E0
