"Time (s)","Gyroscope x (rad/s)","Gyroscope y (rad/s)","Gyroscope z (rad/s)"
5.578521200E-2,-9.048434347E-2,-1.933387071E-1,6.979130208E-2
1.038825030E-1,2.580903657E-2,-7.460185885E-2,6.834049523E-2
1.519797950E-1,6.520981342E-2,7.154753804E-2,-1.320995111E-2
2.000770870E-1,0.000000000E0,1.055268943E-1,-1.382081583E-2
2.481743780E-1,1.053741761E-2,6.192641705E-2,-1.244636998E-2
2.962716700E-1,8.292489499E-2,6.032289565E-2,-2.634354308E-2
3.443689620E-1,7.612902671E-2,-2.878700197E-2,-2.160934173E-2
3.924662530E-1,2.206749097E-2,-5.390881747E-2,1.450803876E-2
4.405635450E-1,-5.482511222E-2,-7.521272451E-2,2.939786762E-2
4.886607330E-1,-6.017018110E-2,-6.635518372E-2,2.878700197E-2
5.367580240E-1,-9.025526792E-2,-9.590577334E-2,2.160934173E-2
5.848553160E-1,-4.718930274E-2,-8.491020650E-2,1.412624773E-2
6.329526080E-1,1.985310577E-3,-6.177370250E-2,-4.352411721E-3
6.810498990E-1,1.817322709E-2,-3.397935256E-2,1.374445739E-3
7.291471910E-1,-9.697478265E-3,-2.725984156E-2,3.436114406E-3
7.772444830E-1,-5.650499370E-3,-2.099847607E-2,4.505127668E-3
8.253417740E-1,-8.170315996E-3,-3.504836559E-2,5.955931731E-3
8.734390660E-1,2.367100911E-3,-2.084576152E-2,5.345066893E-4
9.215363580E-1,-6.185005885E-3,-1.870773360E-2,1.015562657E-2
9.696336490E-1,-1.198822167E-2,-9.773836471E-3,5.879573524E-3
1.017730941E0,-9.850194678E-3,-1.992946304E-2,5.879573524E-3
1.065828233E0,5.039634649E-3,-7.406735327E-3,2.825249685E-3
1.113925524E0,-1.145371469E-3,-1.320995111E-2,4.352411721E-3
1.162022816E0,-7.101302966E-3,-5.421424750E-3,1.145371422E-2
1.210120108E0,-1.313359290E-2,-1.565340906E-2,5.421424750E-3
1.258217399E0,-6.108647794E-4,-7.406735327E-3,-3.665188793E-3
1.306314691E0,-1.023198478E-2,-5.803215317E-3,3.512472380E-3
1.354411983E0,-5.955931731E-3,2.290742996E-4,1.221729559E-3
1.402509274E0,4.428769462E-3,-6.872228696E-4,-2.290742996E-4
1.450606462E0,1.679878100E-3,-5.115992390E-3,-5.345066893E-4
1.498703753E0,-1.030834299E-2,1.374445739E-3,-4.123337101E-3
1.546801045E0,-4.352411721E-3,5.268708803E-3,-5.039634649E-3
1.594898337E0,-1.313359290E-2,1.298087649E-3,-7.788525894E-3
1.642995628E0,7.559451740E-3,4.810560029E-3,8.017600514E-3
1.691092920E0,7.941242307E-3,6.719512399E-3,-5.115992390E-3
1.739190212E0,-3.054323897E-4,6.414080039E-3,2.825249685E-3
1.787287503E0,1.084284950E-2,7.788525894E-3,-7.483093534E-3
1.835384795E0,1.473711245E-2,2.748891478E-3,-1.527161949E-4
1.883482087E0,6.566796452E-3,3.970621154E-3,6.566796452E-3
1.931579378E0,3.817904973E-3,2.519817324E-3,-9.010255337E-3
1.979676670E0,-5.955931731E-3,4.123337101E-3,-2.290742996E-4
2.027773962E0,-1.214093715E-2,-4.657844082E-3,-5.345067009E-3
2.075871253E0,-3.970621154E-3,2.443459118E-3,-6.643154658E-3
2.123968545E0,-8.399390616E-3,2.977965865E-3,-2.748891478E-3
2.172065837E0,-9.850194678E-3,-7.177661173E-3,1.374445739E-3
2.220163128E0,4.428769462E-3,-5.192350596E-3,-2.138026757E-3
2.268260524E0,-2.672533505E-3,-8.399390499E-4,5.421424750E-3
2.316357816E0,-6.872228812E-3,3.207040019E-3,-1.145371469E-3
2.364455108E0,-4.123337101E-3,9.010255337E-3,-2.138026757E-3
2.412552399E0,-1.756236190E-3,-7.101302966E-3,4.657844082E-3
2.460649691E0,8.017600514E-3,-7.635809947E-3,-5.421424750E-3
2.508746983E0,1.374445739E-3,3.436114406E-3,-4.657844082E-3
2.556844274E0,-2.290742937E-3,4.123337101E-3,-2.290742937E-3
2.604941566E0,7.635809947E-3,-4.276053514E-3,-1.527161949E-4
2.653038858E0,1.053741761E-2,-6.185005885E-3,-2.367100911E-3
2.701136149E0,5.650499370E-3,-4.199695308E-3,-5.039634649E-3
2.749233441E0,-7.483093534E-3,-7.635809743E-5,-4.810560029E-3
2.797330733E0,-4.505127668E-3,2.290742996E-4,-2.061668551E-3
2.845428024E0,-4.581485991E-4,5.726857111E-3,-3.588830587E-3
2.893525316E0,6.872228696E-4,2.061668551E-3,-7.635809598E-4
2.941622712E0,-4.352411721E-3,-7.712167688E-3,4.199695308E-3
2.989720003E0,4.963276442E-3,7.941242307E-3,-1.603520010E-3
3.037817295E0,-8.933897130E-3,-1.527161920E-3,2.825249685E-3
3.085914587E0,7.635809598E-4,-3.054323839E-3,3.054323897E-4
3.134011878E0,4.276053514E-3,-7.635809743E-5,-2.138026757E-3
3.182109170E0,-7.483093534E-3,-7.635809743E-5,-4.963276442E-3
3.230206462E0,1.145371469E-3,4.199695308E-3,-4.276053514E-3
3.278303753E0,5.879573524E-3,-1.756236190E-3,2.214384731E-3
3.326401045E0,1.603520010E-3,-4.505127668E-3,2.901607659E-3
3.374498337E0,-1.221729559E-3,-2.519817324E-3,-1.527161920E-3
3.422595733E0,1.679878100E-3,1.679878100E-3,-2.290742996E-4
3.470693024E0,1.023198478E-2,2.748891478E-3,-2.977965865E-3
3.518790316E0,1.221729536E-2,4.046979360E-3,-6.032289471E-3
3.566887608E0,4.046979360E-3,4.428769462E-3,-8.017600514E-3
3.614984899E0,-9.621120058E-3,-2.901607659E-3,-0.000000000E0
3.663082191E0,4.352411721E-3,4.810560029E-3,-2.138026757E-3
3.711179587E0,-7.712167688E-3,-1.450803829E-3,-4.657844082E-3
3.759276878E0,2.748891478E-3,5.345067009E-3,7.635809743E-5
3.807374170E0,-9.773836471E-3,-1.145371469E-3,1.221729559E-3
3.855471462E0,1.389717404E-2,6.719512399E-3,-5.345066893E-4
3.903568753E0,5.955931731E-3,-2.672533505E-3,3.817904799E-4
3.951666045E0,7.635809598E-4,2.672533505E-3,-1.985310577E-3
3.999763441E0,-1.175914705E-2,6.643154658E-3,-5.574141163E-3
4.047860733E0,-1.450803829E-3,3.817904799E-4,-1.145371469E-3
4.095958024E0,1.145371422E-2,5.345066893E-4,1.908952487E-3
4.144055316E0,5.955931731E-3,1.756236190E-3,-1.198822167E-2
4.192152608E0,1.122464053E-2,-2.290742996E-4,-1.656970754E-2
4.240249899E0,3.657552972E-2,3.054323897E-4,-2.466366626E-2
4.288347295E0,4.757109284E-2,1.153007243E-2,-4.451677203E-2
4.336444587E0,7.719803602E-2,3.657552972E-2,-5.955931544E-2
4.384541878E0,5.421425030E-2,2.298378758E-2,-2.641990222E-2
4.432639170E0,-7.635809598E-4,-4.810560029E-3,2.901607659E-3
4.480736462E0,-4.505127668E-3,-6.795870606E-3,-1.145371422E-2
4.528833858E0,1.038470119E-2,1.298087649E-2,-2.825249685E-3
4.576931149E0,-9.162971983E-4,-8.017600514E-3,-1.450803829E-3
4.625028441E0,-1.069013379E-3,-2.695440874E-2,2.687804960E-2
4.673125733E0,-1.985310577E-3,-1.817322709E-2,2.817613818E-2
4.721223128E0,-9.850194678E-3,-3.283398226E-3,1.282816008E-2
4.769320420E0,-1.908952370E-2,-2.351829410E-2,2.580903657E-2
4.817417712E0,-2.496909723E-2,-6.711876392E-2,3.703367710E-2
4.865515003E0,1.374445739E-3,-2.054032870E-2,2.672533318E-2
4.913612399E0,-2.092211880E-2,2.023489587E-2,1.244636998E-2
4.961709691E0,-3.039052337E-2,1.450803829E-3,2.817613818E-2
5.009806983E0,-8.093958721E-3,-2.527453005E-2,4.123337101E-3
5.057904274E0,9.850194678E-3,-5.421424750E-3,-2.977965865E-3
5.106001670E0,-1.863137633E-2,-2.764163166E-2,1.855501719E-2
5.154098962E0,7.635809598E-4,-7.330377586E-3,6.566796452E-3
5.202196253E0,-1.168278884E-2,-1.832594350E-2,9.697478265E-3
5.250293545E0,-3.061959706E-2,-1.763872057E-2,2.160934173E-2
5.298390941E0,-6.566796452E-3,-3.894262947E-3,8.933897130E-3
5.346488233E0,6.261364091E-3,-1.504254527E-2,1.481347065E-2
5.394585524E0,-6.872228812E-3,-2.084576152E-2,1.084284950E-2
5.442682920E0,-7.177661173E-3,-1.832594397E-3,1.488982886E-2
5.490780212E0,-1.702785492E-2,-1.382081583E-2,5.574141163E-3
5.538877503E0,9.697478265E-3,-9.544761851E-3,1.282816008E-2
5.586974795E0,-1.359174121E-2,-2.565632015E-2,8.704823442E-3
5.635072191E0,-2.443459118E-3,2.748891478E-3,4.276053514E-3
5.683169483E0,-9.773836471E-3,-7.483093534E-3,5.650499370E-3
5.731266774E0,2.672533505E-3,-8.781181648E-3,-4.810560029E-3
5.779364170E0,1.832594397E-3,6.414080039E-3,1.298087649E-3
5.827461462E0,-3.046688065E-2,5.650499370E-3,1.046105940E-2
5.875558753E0,-2.779434808E-2,-1.259908639E-2,1.404988952E-2
5.923656149E0,1.985310577E-2,-1.343902480E-2,-2.672533505E-3
5.971753441E0,2.672533318E-2,-2.519817324E-3,7.712167688E-3
6.019850733E0,-7.024944760E-3,-1.855501719E-2,9.544761851E-3
6.067948024E0,2.031125315E-2,-2.901607659E-3,9.086613543E-3
6.116045420E0,6.490438245E-3,-2.878700197E-2,2.267835476E-2
6.164142712E0,7.635809598E-4,-4.054614902E-2,2.290742844E-2
6.212240003E0,-1.893680729E-2,-1.595884189E-2,6.414080039E-3
6.260337399E0,-4.138609022E-2,1.450803829E-3,-3.894262947E-3
6.308434691E0,-8.781181648E-3,3.817904973E-3,-3.359756200E-3
6.356531983E0,1.947131567E-2,-7.254019380E-3,-5.345067009E-3
6.404629378E0,-1.450803829E-3,-1.466075517E-2,1.198822167E-2
6.452726670E0,-2.832885459E-2,-2.825249685E-3,1.229365356E-2
6.500823962E0,1.756236190E-3,9.392046370E-3,8.475748822E-3
6.548921253E0,-3.512472380E-3,-1.298087649E-2,-1.710421406E-2
6.597018649E0,7.712167688E-3,6.032289471E-3,-1.275180187E-2
6.645115941E0,-9.926552884E-3,5.115992390E-3,3.741546767E-3
6.693213233E0,-1.145371422E-2,-2.512181364E-2,1.473711245E-2
6.741310628E0,1.908952370E-2,2.367100911E-3,2.290742996E-4
6.789407920E0,-1.237001177E-2,7.330377586E-3,7.254019380E-3
6.837505212E0,-2.580903657E-2,1.756236190E-3,1.992946304E-2
6.885602608E0,2.672533505E-3,9.086613543E-3,6.948587019E-3
6.933699899E0,-2.290742937E-3,-1.298087649E-2,3.817904799E-4
6.981797191E0,-5.879573524E-3,7.635809743E-5,5.879573524E-3
7.029894483E0,-2.764163166E-2,-9.850194678E-3,-2.596175298E-3
7.077991878E0,9.926552884E-3,4.657844082E-3,1.374445739E-3
7.126089170E0,5.039634649E-3,-1.626427472E-2,-2.367100911E-3
7.174186462E0,-3.741546767E-3,-1.527161920E-3,5.345066893E-4
7.222283858E0,-6.261364091E-3,1.038470119E-2,5.039634649E-3
7.270381149E0,-1.542433538E-2,-3.283398226E-3,1.901316643E-2
7.318478441E0,-2.015853859E-2,-1.298087649E-3,2.138026757E-3
7.366575733E0,-4.581485991E-4,8.857538924E-3,3.359756200E-3
7.414673128E0,-1.007926930E-2,-8.170315996E-3,-7.712167688E-3
7.462770420E0,1.832594397E-3,-6.261364091E-3,8.323032409E-3
7.510867712E0,9.621120058E-3,-1.870773360E-2,1.450803829E-3
7.558965108E0,3.130682046E-3,-3.741546767E-3,-2.290742996E-4
7.607062399E0,-9.162971750E-3,1.305723470E-2,2.519817324E-3
7.655159691E0,-1.145371422E-2,-1.122464053E-2,-4.199695308E-3
7.703257087E0,1.817322709E-2,6.108647794E-4,-3.130682046E-3
7.751354378E0,1.511890348E-2,1.221729559E-3,-9.926552884E-3
7.799451670E0,-8.399390499E-4,6.185005885E-3,-9.697478265E-3
7.847548962E0,4.886918236E-3,-3.741546767E-3,1.382081583E-2
7.895646358E0,6.337722298E-3,-7.101302966E-3,-1.985310577E-3
7.943743649E0,5.803215317E-3,1.000291109E-2,9.544761851E-3
7.991840941E0,-2.306014486E-2,7.864884101E-3,-9.926552884E-3
8.039938337E0,-3.512472380E-3,8.323032409E-3,8.323032409E-3
8.088035628E0,-8.475748822E-3,-5.955931731E-3,-1.557705179E-2
8.136132920E0,9.086613543E-3,5.726857111E-3,3.512472380E-3
8.184230212E0,-1.702785492E-2,-1.244636998E-2,6.490438245E-3
8.232327608E0,-4.123337101E-3,4.810560029E-3,7.406735327E-3
8.280424899E0,4.963276442E-3,-9.162971983E-4,-7.635809598E-4
8.328522191E0,3.283398226E-3,-2.206749097E-2,1.351538301E-2
8.376619587E0,-7.483093534E-3,-1.527161949E-4,-1.435532235E-2
8.424716878E0,1.069013379E-3,2.580903657E-2,1.527161920E-3
8.472814170E0,-9.239329956E-3,-2.603811212E-2,-2.367100911E-3
8.520911462E0,2.825249545E-2,2.977965865E-3,-1.320995111E-2
8.569008858E0,-6.414080039E-3,3.512472380E-3,-2.672533505E-3
8.617106149E0,-3.191768378E-2,2.099847607E-2,-1.725693047E-2
8.665203441E0,-5.345067009E-3,-5.345066893E-4,4.046979360E-3
8.713300733E0,1.389717404E-2,-2.466366626E-2,-1.824958436E-2
8.761398128E0,1.595884189E-2,1.320995111E-2,-7.788525894E-3
8.809495420E0,-2.619082667E-2,-7.635809743E-5,1.160643063E-2
8.857592712E0,-7.024944760E-3,-4.046979360E-3,1.595884189E-2
8.905690108E0,-6.872228696E-4,2.977965865E-3,-4.581485875E-3
8.953787399E0,-7.635809598E-4,1.450803829E-3,1.779143699E-2
9.001884691E0,-2.138026757E-3,-6.795870606E-3,-8.399390499E-4
9.049981983E0,3.512472380E-3,1.366809942E-2,-6.490438245E-3
9.098079378E0,1.527161949E-4,-4.581485875E-3,-4.963276442E-3
9.146176670E0,1.198822167E-2,-1.015562657E-2,-4.581485991E-4
9.194273962E0,6.566796452E-3,2.977965865E-3,1.756236190E-3
9.242371253E0,-2.046396956E-2,5.268708803E-3,1.527161949E-4
9.290468649E0,-4.428769462E-3,1.427896414E-2,-2.061668551E-3
9.338565941E0,4.657844082E-3,-8.704823442E-3,2.061668551E-3
9.386663233E0,1.000291109E-2,-2.000582218E-2,-6.948587019E-3
9.434760628E0,2.061668551E-3,1.824958436E-2,-0.000000000E0
9.482857920E0,-2.565632015E-2,-3.436114406E-3,1.137735695E-2
9.530955212E0,1.618791744E-2,-5.268708803E-3,-7.864884101E-3
9.579052503E0,1.870773360E-2,-1.504254527E-2,9.239329956E-3
9.627149899E0,-1.634063199E-2,-2.397644334E-2,-1.069013379E-3
9.675247191E0,-2.901607659E-3,3.222311661E-2,-9.086613543E-3
9.723344483E0,-1.481347065E-2,5.574141163E-3,-1.007926930E-2
9.771441774E0,1.725693047E-2,-6.108647678E-3,-1.175914705E-2
9.819539170E0,1.702785492E-2,-3.741546767E-3,-4.199695308E-3
9.867636462E0,-4.810560029E-3,-1.007926930E-2,3.817904973E-3
9.915733753E0,-2.061668551E-3,1.076649129E-2,1.175914705E-2
9.963831045E0,-1.206457894E-2,5.955931731E-3,3.741546767E-3
1.001192844E1,-6.108647794E-4,6.261364091E-3,6.719512399E-3
1.006002573E1,1.290451828E-2,-1.137735695E-2,-5.955931731E-3
1.010812302E1,3.054323897E-4,-5.345066893E-4,5.803215317E-3
1.015622032E1,-6.872228812E-3,2.367100911E-3,2.519817324E-3
1.020431771E1,8.323032409E-3,-4.886918236E-3,1.076649129E-2
1.025241500E1,9.162971750E-3,-1.527161989E-2,9.392046370E-3
1.030051230E1,7.177661173E-3,-1.527161949E-4,1.679878100E-3
1.034860959E1,-7.024944760E-3,-1.374445739E-3,6.490438245E-3
1.039670698E1,-7.635809947E-3,5.345067009E-3,-1.649334840E-2
1.044480427E1,1.756236190E-3,1.992946304E-2,-1.214093715E-2
1.049290157E1,-1.076649129E-2,6.108647794E-4,-2.229656465E-2
1.054099886E1,1.481347065E-2,6.948587019E-3,-8.704823442E-3
1.058909625E1,5.497782957E-3,-1.473711245E-2,-4.352411721E-3
1.063719354E1,5.879573524E-3,8.170315996E-3,1.450803829E-3
1.068529084E1,-2.336557768E-2,1.275180187E-2,-1.183550525E-2
1.073338813E1,-2.489273995E-2,2.985601686E-2,-1.855501719E-2
1.078148552E1,-6.948587019E-3,-1.893680729E-2,-1.168278884E-2
1.082958282E1,4.077522457E-2,-2.443459071E-2,-3.283398226E-3
1.087768011E1,2.741255611E-2,-1.466075517E-2,-5.650499370E-3
1.092577740E1,-4.199695308E-3,-1.779143699E-2,1.298087649E-3
1.097387469E1,-3.588830680E-2,-4.749473557E-2,4.573849961E-2
1.102197209E1,-5.459604040E-2,-4.993819445E-2,4.833467677E-2
1.107006938E1,-5.115992390E-3,1.756236330E-2,1.412624773E-2
1.111816667E1,-2.977965865E-3,2.367100911E-3,-4.734201822E-3
1.116626396E1,2.390008420E-2,-2.443459071E-2,7.635809743E-5
1.121436136E1,9.315688163E-3,-1.015562657E-2,-1.046105940E-2
1.126245865E1,-1.336266659E-2,6.872228696E-4,-2.458730713E-2
1.131055594E1,2.596175298E-3,-6.872228696E-4,2.061668551E-3
1.135865323E1,-8.933897130E-3,-2.603811212E-2,2.519817324E-3
1.140675052E1,3.191768378E-2,1.718057133E-2,-3.665188793E-3
1.145484792E1,-2.901607659E-3,9.544761851E-3,-4.352411721E-3
1.150294521E1,-2.901607659E-3,-2.619082667E-2,5.726857111E-3
1.155104250E1,-3.436114406E-3,-3.291033953E-2,4.123337101E-3
1.159913980E1,-2.802342176E-2,5.421424750E-3,-6.032289471E-3
1.164723719E1,-1.137735695E-2,3.756818548E-2,-1.649334840E-2
1.169533448E1,9.392046370E-3,1.069013379E-3,-2.061668551E-3
1.174343177E1,2.275471389E-2,-1.641699113E-2,1.091920771E-2
1.179152907E1,2.283107117E-2,9.773836471E-3,6.185005885E-3
1.183962646E1,-2.672533505E-3,1.030834299E-2,1.550069358E-2
1.188772375E1,-9.468403645E-3,-5.115992390E-3,1.450803876E-2
1.193582104E1,-3.283398226E-3,-2.176205814E-2,1.053741761E-2
1.198391834E1,-1.374445739E-3,-2.359465137E-2,1.221729536E-2
1.203201563E1,-1.557705179E-2,-4.581485991E-4,8.781181648E-3
1.208011302E1,-1.718057133E-2,1.412624773E-2,2.084576152E-2
1.212821032E1,-1.908952370E-2,-2.977965865E-3,2.725984156E-2
1.217630761E1,-9.621120058E-3,-1.870773360E-2,2.863428742E-2
1.222440490E1,-4.428769462E-3,-2.328922041E-2,2.390008420E-2
1.227250230E1,4.581485991E-4,-4.581485991E-4,9.086613543E-3
1.232059959E1,-1.061377581E-2,-1.450803876E-2,1.351538301E-2
1.236869688E1,-2.061668551E-3,-6.185005885E-3,6.948587019E-3
1.241679417E1,-1.221729559E-3,3.283398226E-3,-4.581485991E-4
1.246489157E1,-7.635809743E-5,-6.108647678E-3,-4.886918236E-3
1.251298886E1,-5.345067009E-3,-7.712167688E-3,-2.519817324E-3
1.256108615E1,-1.565340906E-2,5.497782957E-3,-4.505127668E-3
1.260918344E1,-8.628465235E-3,1.916588284E-2,-1.397353224E-2
1.265728073E1,1.771507785E-2,-5.345066893E-4,5.803215317E-3
1.270537813E1,2.031125315E-2,-1.015562657E-2,7.101302966E-3
1.275347542E1,-1.473711245E-2,2.031125315E-2,2.817613818E-2
1.280157271E1,-4.115701467E-2,-6.872228696E-4,2.703076601E-2
1.284967000E1,2.405280061E-2,3.741546767E-3,-1.649334840E-2
1.289776740E1,3.665188700E-2,-3.756818548E-2,-2.214384824E-2
1.294586469E1,1.664606482E-2,-3.817904799E-4,-2.466366626E-2
1.299396198E1,-1.931859925E-2,2.031125315E-2,1.298087649E-3
1.304205927E1,-2.886336111E-2,-2.252563834E-2,2.787070535E-2
1.309015667E1,3.054323979E-2,-4.046979360E-3,7.024944760E-3
1.313825396E1,1.702785492E-2,-1.107192412E-2,4.581485875E-3
1.318635125E1,-2.306014486E-2,-9.697478265E-3,1.855501719E-2
1.323444855E1,-2.138026757E-3,1.893680729E-2,1.183550525E-2
1.328254584E1,-2.542724647E-2,-8.628465235E-3,2.260199748E-2
1.333064323E1,2.596175298E-3,7.635809947E-3,7.330377586E-3
1.337874052E1,1.794415340E-2,-8.323032409E-3,-4.199695308E-3
1.342683782E1,7.330377586E-3,-1.404988952E-2,7.406735327E-3
1.347493521E1,-1.939495653E-2,-2.733619884E-2,9.773836471E-3
1.352303250E1,-7.788525894E-3,7.788525894E-3,-1.496618707E-2
1.357112980E1,5.497782957E-3,1.229365356E-2,-3.008509055E-2
1.361922709E1,-5.115992390E-3,-2.115119249E-2,-1.145371422E-2
1.366732448E1,1.557705179E-2,-2.443459118E-3,-8.552107029E-3
1.371542177E1,1.832594350E-2,4.810560029E-3,-4.123337101E-3
1.376351907E1,8.399390499E-4,-6.795870606E-3,1.763872057E-2
1.381161636E1,-1.267544460E-2,-2.054032870E-2,3.642281145E-2
1.385971375E1,-6.490438245E-3,2.596175298E-3,1.580612548E-2
1.390781104E1,-7.788525894E-3,3.283398226E-3,3.054323839E-3
1.395590834E1,-7.483093534E-3,-8.399390616E-3,-1.237001177E-2
1.400400573E1,4.505127668E-3,1.450803829E-3,-1.649334840E-2
1.405210302E1,7.635809598E-4,1.733328775E-2,-1.893680729E-2
1.410020032E1,-1.237001177E-2,-8.628465235E-3,2.901607659E-3
1.414829771E1,5.345067009E-3,3.970621154E-3,2.825249685E-3
1.419639500E1,-1.007926930E-2,-1.832594397E-3,1.076649129E-2
1.424449230E1,-5.879573524E-3,5.115992390E-3,-4.352411721E-3
1.429258969E1,5.574141163E-3,-4.276053514E-3,-1.427896414E-2
1.434068698E1,2.115119249E-2,-1.145371422E-2,-1.809686981E-2
1.438878438E1,2.054032870E-2,-6.261364091E-3,-1.832594350E-2
1.443688167E1,-1.481347065E-2,5.803215317E-3,-6.185005885E-3
1.448497896E1,-2.306014486E-2,1.153007243E-2,-4.581485991E-4
1.453307636E1,9.544761851E-3,1.221729559E-3,9.926552884E-4
1.458117365E1,1.786779426E-2,-1.397353224E-2,5.268708803E-3
1.462927105E1,-1.649334840E-2,-1.229365356E-2,9.850194678E-3
1.467736834E1,-2.733619884E-2,2.924515121E-2,3.970621154E-3
1.472546563E1,-2.199113183E-2,-4.963276442E-3,6.643154658E-3
1.477356302E1,1.970038936E-2,-1.237001177E-2,-1.397353224E-2
1.482166032E1,1.603520103E-2,6.032289471E-3,-9.392046370E-3
1.486975771E1,-1.977674663E-2,-1.320995111E-2,7.101302966E-3
1.491785500E1,-2.290742996E-4,1.550069358E-2,5.650499370E-3
1.496595240E1,-9.162971983E-4,6.643154658E-3,-6.185005885E-3
1.501404969E1,-2.290742937E-3,-3.275762498E-2,1.985310577E-3
1.506214698E1,-7.330377586E-3,-7.635809743E-5,-1.450803829E-3
1.511024438E1,-2.099847607E-2,1.305723470E-2,7.635809743E-5
1.515834167E1,1.733328775E-2,1.863137633E-2,-2.160934173E-2
1.520643907E1,1.244636998E-2,-2.390008420E-2,1.298087649E-2
1.525453636E1,-2.435823344E-2,-1.221729559E-3,3.268126398E-2
1.530263375E1,-1.298087649E-2,2.863428742E-2,7.101302966E-3
1.535073105E1,2.061668597E-2,-2.733619884E-2,9.239329956E-3
1.539882844E1,2.977965772E-2,-4.925097153E-2,1.137735695E-2
1.544692573E1,-8.704823442E-3,3.894262947E-3,6.261364091E-3
1.549502313E1,-3.657552972E-2,2.878700197E-2,9.468403645E-3
1.554312011E1,-9.162971983E-4,-1.313359290E-2,9.086613543E-3
1.559121782E1,4.192059487E-2,-2.153298259E-2,-4.199695308E-3
1.563931511E1,2.145662531E-2,1.244636998E-2,3.130682046E-3
1.568741250E1,-1.237001177E-2,1.305723470E-2,1.435532235E-2
1.573550980E1,-9.086613543E-3,2.367100911E-3,2.054032870E-2
1.578360719E1,-2.596175298E-3,1.672242396E-2,4.581485991E-4
1.583170448E1,9.468403645E-3,-8.933897130E-3,-4.886918236E-3
1.587980188E1,2.580903657E-2,-1.259908639E-2,-6.719512399E-3
1.592789917E1,-5.192350596E-3,-1.298087649E-3,-5.726857111E-3
1.597599657E1,-6.872228812E-3,2.290742844E-2,-6.719512399E-3
1.602409386E1,1.298087649E-2,-2.214384731E-3,7.101302966E-3
1.607219125E1,1.275180187E-2,3.817904973E-3,1.389717404E-2
1.612028854E1,-6.261364091E-3,-8.399390499E-4,3.000873141E-2
1.616838594E1,-1.389717404E-2,-1.733328775E-2,3.688096255E-2
1.621648323E1,-3.741546720E-2,-1.779143699E-2,1.962403022E-2
1.626458063E1,-4.810560029E-3,8.399390499E-4,-1.947131567E-2
1.631267802E1,3.596466407E-2,-6.108647794E-4,-1.534797717E-2
1.636077532E1,1.290451828E-2,-2.878700197E-2,7.406735327E-3
1.640887271E1,4.428769462E-3,2.863428742E-2,1.908952487E-3
1.645697000E1,-2.756527252E-2,1.038470119E-2,3.214675933E-2
1.650506740E1,-3.489565104E-2,-1.275180187E-2,8.399390616E-3
1.655316469E1,1.282816008E-2,2.328922041E-2,-3.298669681E-2
1.660126209E1,7.177661173E-3,-2.367100911E-3,-2.932151034E-2
1.664935948E1,2.260199748E-2,2.901607659E-3,-2.420551702E-2
1.669745677E1,1.786779426E-2,2.229656465E-2,-1.534797717E-2
1.674555417E1,-8.399390616E-3,-1.206457894E-2,1.298087649E-2
1.679365146E1,-2.832885459E-2,-2.787070535E-2,3.825540841E-2
1.684174886E1,-1.756236330E-2,2.680169232E-2,1.443168055E-2
1.688984615E1,-2.634354308E-2,4.146244749E-2,4.046979360E-3
1.693794354E1,-1.924224012E-2,-3.061959706E-2,1.618791744E-2
1.698604094E1,5.421425030E-2,-7.941242307E-3,-8.399390616E-3
1.703413823E1,2.672533505E-3,-2.428187430E-2,1.412624773E-2
1.708223563E1,-1.725693047E-2,-1.298087649E-2,1.840230078E-2
1.713033292E1,2.825249685E-3,-3.207040019E-3,1.374445762E-2
1.717843032E1,-1.221729536E-2,-4.276053514E-3,-1.443168055E-2
1.722652771E1,8.704823442E-3,1.481347065E-2,-1.809686981E-2
1.727462500E1,-6.414080039E-3,-5.726857111E-3,-8.399390499E-4
1.732272240E1,-4.581485875E-3,4.505127668E-3,-9.621120058E-3
1.737081980E1,-2.397644334E-2,3.817904799E-4,4.352411721E-3
1.741891709E1,-1.267544460E-2,1.374445762E-2,-4.199695308E-3
1.746701448E1,1.007926930E-2,-9.621120058E-3,-1.481347065E-2
1.751511177E1,-1.343902480E-2,-2.657261863E-2,-3.283398226E-3
1.756320917E1,-6.337722298E-3,-1.069013402E-2,-7.864884101E-3
1.761130657E1,-4.123337101E-3,-5.192350596E-3,-1.114828233E-2
1.765940386E1,-3.207040019E-3,2.588539571E-2,-6.566796452E-3
1.770750125E1,4.581485991E-4,1.137735695E-2,8.552107029E-3
1.775559854E1,-3.741546767E-3,-2.023489587E-2,9.697478265E-3
1.780369594E1,1.595884189E-2,1.725693047E-2,-3.894262947E-3
1.785179334E1,1.366809942E-2,6.253728271E-2,-7.864884101E-3
1.789989063E1,-6.261364091E-3,1.786779426E-2,-1.511890348E-2
1.794798802E1,-2.122755162E-2,-1.412624773E-2,5.345066893E-4
1.799608542E1,-1.282816008E-2,-5.803215317E-3,-3.665188793E-3
1.804418271E1,-2.443459118E-3,-1.527161920E-3,6.337722298E-3
1.809228011E1,-2.092211880E-2,-9.392046370E-3,1.420260593E-2
1.814037740E1,-1.695149764E-2,-1.107192412E-2,1.954767294E-2
1.818847480E1,6.337722298E-3,-1.450803829E-3,1.320995111E-2
1.823657219E1,8.017600514E-3,-2.115119249E-2,1.504254527E-2
1.828466948E1,-8.781181648E-3,-6.032289471E-3,-6.948587019E-3
1.833276688E1,1.466075517E-2,1.901316643E-2,-1.916588284E-2
1.838086417E1,4.581485991E-4,9.315688163E-3,-2.649625950E-2
1.842896157E1,2.061668551E-3,6.108647678E-3,-1.091920771E-2
1.847705896E1,1.030834299E-2,-1.527161920E-3,-1.030834299E-2
1.852515625E1,9.697478265E-3,-3.283398226E-3,9.850194678E-3
1.857325365E1,-4.352411721E-3,-6.414080039E-3,1.672242396E-2
1.862135104E1,-1.672242396E-2,-3.817904973E-3,9.010255337E-3
1.866944834E1,-4.352411721E-3,1.030834299E-2,-1.320995111E-2
1.871754573E1,-2.519817324E-3,1.298087649E-3,-1.649334840E-2
1.876564302E1,-8.704823442E-3,5.497782957E-3,-2.474002354E-2
1.881374042E1,5.497782957E-3,3.894262947E-3,-1.061377581E-2
1.886183782E1,1.084284950E-2,3.741546767E-3,-1.649334840E-2
1.890993511E1,-1.221729559E-3,-8.017600514E-3,9.544761851E-3
1.895803250E1,-3.283398226E-3,2.367100911E-3,1.275180187E-2
1.900612990E1,2.825249685E-3,-1.550069358E-2,3.130682046E-3
1.905422719E1,6.490438245E-3,2.061668551E-3,-1.481347065E-2
1.910232459E1,2.519817278E-2,-1.527161949E-4,-1.832594350E-2
1.915042188E1,2.290742937E-3,-3.168861195E-2,-1.771507785E-2
1.919851927E1,1.634063199E-2,1.916588284E-2,-9.544761851E-3
1.924661667E1,-2.153298259E-2,-1.145371422E-2,2.122755162E-2
1.929471396E1,3.054323897E-4,-6.185005885E-3,1.939495653E-2
1.934281136E1,9.010255337E-3,-2.290742937E-3,7.635809743E-5
1.939090875E1,1.252272818E-2,1.901316643E-2,-9.086613543E-3
1.943900605E1,7.330377586E-3,6.948587019E-3,-9.621120058E-3
1.948710344E1,2.901607659E-3,-1.504254527E-2,-5.955931731E-3
1.953520084E1,1.206457894E-2,8.475748822E-3,-7.330377586E-3
1.958329813E1,-2.802342176E-2,-6.872228812E-3,1.259908639E-2
1.963139552E1,-1.374445762E-2,9.086613543E-3,-4.505127668E-3
1.967949292E1,1.252272818E-2,-3.665188793E-3,-1.069013379E-3
1.972759021E1,1.481347065E-2,-2.084576152E-2,3.054323839E-3
1.977568761E1,1.985310577E-2,5.421424750E-3,-5.039634649E-3
1.982378500E1,-2.367101051E-2,-1.046105940E-2,2.977965865E-3
1.987188230E1,-5.421424750E-3,-1.221729559E-3,1.145371469E-3
1.991997969E1,7.177661173E-3,7.406735327E-3,-6.948587019E-3
1.996807709E1,-1.695149764E-2,-4.886918236E-3,6.108647794E-4
2.001617459E1,4.428769462E-3,-5.192350596E-3,4.963276442E-3
2.006427177E1,9.697478265E-3,-1.153007243E-2,8.399390616E-3
2.011236917E1,-3.817904973E-3,3.588830587E-3,-1.450803829E-3
2.016046646E1,-8.399390616E-3,1.565340906E-2,6.490438245E-3
2.020856386E1,-1.603520103E-2,-1.214093715E-2,6.566796452E-3
2.025666125E1,6.719512399E-3,-2.672533505E-3,-5.726857111E-3
2.030475865E1,8.246674202E-3,2.825249685E-3,-1.733328775E-2
2.035285594E1,-2.657261863E-2,1.527161949E-4,-5.955931731E-3
2.040095334E1,-3.191768378E-2,7.941242307E-3,-1.038470119E-2
2.044905073E1,-3.817904799E-4,8.781181648E-3,-2.748891478E-3
2.049714802E1,1.175914705E-2,-1.122464053E-2,-2.214384731E-3
2.054524542E1,2.321286127E-2,1.091920771E-2,-6.414080039E-3
2.059334282E1,-4.810560029E-3,-4.963276442E-3,2.519817324E-3
2.064144021E1,2.596175298E-3,2.344193682E-2,-1.588248461E-2
2.068953750E1,3.207040019E-3,1.267544460E-2,-1.206457894E-2
2.073763490E1,-1.175914705E-2,-3.436114406E-3,-9.697478265E-3
2.078573230E1,-5.803215317E-3,5.192350596E-3,-5.421424750E-3
2.083382969E1,-1.237001177E-2,-2.397644334E-2,4.886918236E-3
2.088192698E1,1.198822167E-2,1.756236190E-3,-1.450803876E-2
2.093002438E1,2.015853859E-2,1.427896414E-2,-1.275180187E-2
2.097812177E1,-1.748600416E-2,-1.970038936E-2,-2.596175298E-3
2.102621907E1,1.267544460E-2,2.367101051E-2,-8.246674202E-3
2.107431646E1,-7.483093534E-3,9.010255337E-3,-1.000291109E-2
2.112241386E1,5.345067009E-3,-1.397353224E-2,1.527161920E-3
2.117051125E1,1.695149764E-2,2.367100911E-3,-7.101302966E-3
2.121860855E1,-8.170315996E-3,6.719512399E-3,9.315688163E-3
2.126670594E1,-5.574141163E-3,3.741546767E-3,1.527161920E-3
2.131480334E1,1.374445739E-3,2.107483521E-2,-1.145371469E-3
2.136290073E1,-9.162971750E-3,-1.809686981E-2,5.115992390E-3
2.141099802E1,1.221729536E-2,-1.107192412E-2,3.054323839E-3
2.145909542E1,-1.069013402E-2,-3.817904799E-4,-1.046105940E-2
2.150719282E1,1.374445739E-3,1.595884189E-2,-1.603520010E-3
2.155529021E1,4.581485991E-4,-9.850194678E-3,-6.032289471E-3
2.160338750E1,2.153298259E-2,-8.323032409E-3,8.399390616E-3
2.165148490E1,-3.359756246E-2,-1.183550525E-2,-1.893680729E-2
2.169958230E1,-1.275180187E-2,2.596175298E-2,-2.206749097E-2
2.174767969E1,-1.679878100E-3,-1.343902480E-2,-1.832594350E-2
2.179577698E1,2.122755162E-2,-9.315688163E-3,7.635809743E-5
2.184387438E1,-2.977965865E-3,1.458439697E-2,3.817904799E-4
2.189197177E1,-1.664606482E-2,6.872228812E-3,2.725984156E-2
2.194006917E1,-5.879573524E-3,-1.076649129E-2,1.504254527E-2
2.198816646E1,2.138026804E-2,4.123337101E-3,-4.352411721E-3
2.203626386E1,-1.679878100E-3,-1.939495653E-2,-3.054323897E-4
2.208436125E1,1.565340906E-2,1.244636998E-2,-8.781181648E-3
2.213245865E1,-4.428769462E-3,4.199695308E-3,-2.138026757E-3
2.218055594E1,-8.933897130E-3,-5.421424750E-3,4.963276442E-3
2.222865334E1,-1.145371422E-2,1.618791744E-2,-1.450803829E-3
2.227675073E1,-8.017600514E-3,-1.221729559E-3,1.160643063E-2
2.232484813E1,-1.908952487E-3,-5.955931731E-3,-2.290742996E-4
2.237294542E1,1.137735695E-2,-2.367100911E-3,4.581485875E-3
2.242104282E1,-9.926552884E-4,-5.879573524E-3,-4.199695308E-3
2.246914021E1,-3.817904973E-3,-3.283398226E-3,8.399390499E-4
2.251723761E1,-8.857538924E-3,-2.061668551E-3,-3.894262947E-3
2.256533490E1,1.908952487E-3,-3.054323897E-4,1.130099874E-2
2.261343230E1,4.963276442E-3,7.635809743E-5,-2.290742937E-3
2.266152969E1,3.512472380E-3,5.726857111E-3,-1.908952487E-3
2.270962709E1,-4.428769462E-3,-6.948587019E-3,6.261364091E-3
2.275772438E1,-6.872228812E-3,-7.635809947E-3,-2.672533505E-3
2.280582177E1,4.734201822E-3,1.664606482E-2,-1.137735695E-2
2.285391917E1,-6.719512399E-3,-1.611155830E-2,7.254019380E-3
2.290201657E1,1.374445739E-3,-1.114828233E-2,-5.268708803E-3
2.295011386E1,5.955931731E-3,2.191477455E-2,-2.443459118E-3
2.299821125E1,-2.840521187E-2,-1.771507785E-2,1.847865991E-2
2.304630865E1,2.367100911E-3,-9.850194678E-3,6.643154658E-3
2.309440605E1,1.924224012E-2,4.657844082E-3,-3.436114406E-3
2.314250334E1,-1.061377581E-2,-1.473711245E-2,-3.283398226E-3
2.319060073E1,-1.053741761E-2,9.162971750E-3,-1.374445739E-3
2.323869813E1,-1.832594397E-3,5.268708803E-3,-2.367100911E-3
2.328679552E1,3.512472380E-3,-7.406735327E-3,-9.162971983E-4
2.333489282E1,1.817322709E-2,1.259908639E-2,-1.198822167E-2
2.338299021E1,-4.428769462E-3,1.756236190E-3,1.908952487E-3
2.343108761E1,-3.741546767E-3,-8.552107029E-3,2.977965865E-3
2.347918500E1,9.162971983E-4,1.000291109E-2,-7.559451740E-3
2.352728240E1,7.635809598E-4,-3.817904799E-4,-2.672533505E-3
2.357537969E1,9.926552884E-3,-1.466075517E-2,4.581485875E-3
2.362347709E1,8.628465235E-3,-1.122464053E-2,1.259908639E-2
2.367157448E1,-1.588248461E-2,0.000000000E0,1.519526169E-2
2.371967188E1,-1.076649129E-2,6.337722298E-3,1.656970754E-2
2.376776927E1,-4.428769462E-3,-1.534797717E-2,1.588248461E-2
2.381586667E1,2.168569900E-2,-7.330377586E-3,-8.170315996E-3
2.386396407E1,1.695149764E-2,8.704823442E-3,-2.138026804E-2
2.391206146E1,-1.145371422E-2,-1.023198478E-2,5.345066893E-4
2.396015886E1,3.817904799E-4,5.345066893E-4,-1.069013379E-3
2.400825615E1,4.886918236E-3,9.850194678E-3,3.054323897E-4
2.405635365E1,-1.641699113E-2,7.635809743E-5,1.107192412E-2
2.410445104E1,-6.872228812E-3,2.290742996E-4,1.061377581E-2
2.415254844E1,3.512472380E-3,-1.191186346E-2,6.795870606E-3
2.420064584E1,3.054323839E-3,-3.588830587E-3,-2.519817324E-3
2.424874323E1,-5.955931731E-3,-3.817904799E-4,-1.030834299E-2
2.429684063E1,6.719512399E-3,-1.756236190E-3,-2.290742937E-3
2.434493813E1,-1.069013379E-3,-1.664606482E-2,3.054323897E-4
2.439303552E1,3.817904973E-3,1.191186346E-2,-4.276053514E-3
2.444113292E1,-1.267544460E-2,-2.214384731E-3,5.268708803E-3
2.448923042E1,-5.268708803E-3,-2.290742937E-3,1.030834299E-2
2.453732782E1,3.130682046E-3,1.374445739E-3,6.795870606E-3
2.458542532E1,-1.267544460E-2,5.345066893E-4,5.574141163E-3
2.463352282E1,4.123337101E-3,7.177661173E-3,-2.367100911E-3
2.468162021E1,2.596175298E-3,-8.017600514E-3,-4.199695308E-3
2.472971771E1,-3.054323839E-3,-1.206457894E-2,-5.039634649E-3
2.477781521E1,2.443459118E-3,1.397353224E-2,2.977965865E-3
2.482591271E1,-1.305723470E-2,-3.054323897E-4,6.414080039E-3
2.487401021E1,-3.894262947E-3,-4.734201822E-3,1.450803829E-3
2.492210771E1,3.130682046E-3,-1.725693047E-2,1.305723470E-2
2.497020521E1,1.007926930E-2,-9.010255337E-3,7.483093534E-3
2.501830282E1,-1.038470119E-2,7.712167688E-3,-1.153007243E-2
2.506640032E1,-1.175914705E-2,1.603520103E-2,-1.450803829E-3
2.511449792E1,-6.566796452E-3,-2.405280061E-2,2.825249685E-3
2.516259542E1,2.840521187E-2,9.315688163E-3,-1.275180187E-2
2.521069302E1,-2.099847607E-2,-7.941242307E-3,3.436114406E-3
2.525879052E1,-1.023198478E-2,3.359756200E-3,1.496618707E-2
2.530688813E1,-3.359756200E-3,-4.276053514E-3,1.985310577E-3
2.535498573E1,9.850194678E-3,-8.704823442E-3,2.138026757E-3
2.540308334E1,8.704823442E-3,-1.450803829E-3,-4.810560029E-3
2.545118094E1,-1.809686981E-2,1.244636998E-2,-9.544761851E-3
2.549927855E1,-1.267544460E-2,8.933897130E-3,-3.665188793E-3
2.554737625E1,1.710421406E-2,-1.076649129E-2,1.832594397E-3
2.559547386E1,1.290451828E-2,-8.323032409E-3,-9.544761851E-3
2.564357146E1,1.069013379E-3,-4.734201822E-3,8.857538924E-3
2.569166917E1,-1.725693047E-2,-8.628465235E-3,-8.399390499E-4
2.573976688E1,-6.872228696E-4,2.076940238E-2,3.283398226E-3
2.578786448E1,-1.336266659E-2,-2.183841541E-2,8.933897130E-3
2.583596219E1,2.832885459E-2,1.756236190E-3,-1.099556591E-2
2.588405990E1,1.084284950E-2,-1.374445739E-3,4.505127668E-3
2.593215761E1,-8.704823442E-3,-3.588830587E-3,6.108647678E-3
2.598025532E1,-8.399390616E-3,6.643154658E-3,3.130682046E-3
2.602835302E1,-5.574141163E-3,-4.428769462E-3,-4.657844082E-3
2.607645073E1,5.955931731E-3,-3.588830587E-3,-2.443459118E-3
2.612454844E1,3.207040019E-3,-4.657844082E-3,-3.283398226E-3
2.617264625E1,6.108647678E-3,-4.046979360E-3,4.352411721E-3
2.622074396E1,-2.519817324E-3,-7.254019380E-3,6.795870606E-3
2.626884177E1,8.093958721E-3,6.719512399E-3,3.741546767E-3
2.631693948E1,5.955931731E-3,-2.825249545E-2,8.704823442E-3
2.636503730E1,1.672242396E-2,-1.550069358E-2,-1.908952487E-3
2.641313500E1,-3.588830587E-3,6.261364091E-3,-3.283398226E-3
2.646123282E1,-1.756236330E-2,9.315688163E-3,-1.359174121E-2
2.650933063E1,5.497782957E-3,3.741546767E-3,-4.734201822E-3
2.655742844E1,-5.345066893E-4,-1.649334840E-2,-1.756236330E-2
2.660552625E1,1.290451828E-2,2.122755162E-2,-3.665188793E-3
2.665362407E1,-1.481347065E-2,-8.093958721E-3,1.290451828E-2
2.670172188E1,-1.069013379E-3,-5.039634649E-3,4.428769462E-3
2.674981969E1,1.130099874E-2,1.244636998E-2,3.741546767E-3
2.679791761E1,-1.672242396E-2,-1.695149764E-2,9.850194678E-3
2.684601542E1,1.107192412E-2,5.421424750E-3,-2.290742937E-3
2.689411323E1,-3.817904799E-4,-3.588830587E-3,-1.618791744E-2
2.694221115E1,-4.505127668E-3,2.977965865E-3,-1.000291109E-2
2.699030896E1,-7.941242307E-3,2.588539571E-2,-1.588248461E-2
2.703840688E1,-2.596175298E-3,3.382663801E-2,-2.138026757E-3
2.708650480E1,2.061668551E-3,-2.237292193E-2,7.864884101E-3
2.713460261E1,4.734201822E-3,-1.252272818E-2,-8.399390499E-4
2.718270052E1,-4.657844082E-3,-7.635809743E-5,9.086613543E-3
2.723079844E1,2.367100911E-3,-1.542433538E-2,3.436114406E-3
2.727889636E1,4.123337101E-3,1.229365356E-2,-9.010255337E-3
2.732699427E1,-1.550069358E-2,7.864884101E-3,3.741546767E-3
2.737509219E1,3.054323897E-4,-1.443168055E-2,-2.290742996E-4
2.742319011E1,3.535379842E-2,1.504254527E-2,-4.046979360E-3
2.747128802E1,-1.290451828E-2,-1.259908639E-2,6.643154658E-3
2.751938594E1,-1.145371469E-3,5.115992390E-3,7.483093534E-3
2.756748386E1,5.726857111E-3,-4.581485991E-4,-1.756236190E-3
2.761558177E1,-5.268708803E-3,-1.023198478E-2,8.857538924E-3
2.766367980E1,2.290742937E-3,1.374445739E-3,-2.519817324E-3
2.771177771E1,-1.191186346E-2,-6.566796452E-3,-5.192350596E-3
2.775987563E1,-7.635809598E-4,1.748600416E-2,-9.010255337E-3
2.780797365E1,-7.483093534E-3,6.261364091E-3,3.817904973E-3
2.785607157E1,1.259908639E-2,1.985310577E-3,-4.428769462E-3
2.790416959E1,1.832594397E-3,7.941242307E-3,2.519817324E-3
2.795226750E1,-3.115410358E-2,1.145371469E-3,6.795870606E-3
2.800036552E1,2.443459118E-3,6.948587019E-3,6.566796452E-3
2.804846354E1,5.345066893E-4,-8.323032409E-3,-1.985310577E-3
2.809656157E1,-1.320995111E-2,-1.221729559E-3,-3.970621154E-3
2.814465948E1,1.069013379E-3,1.626427472E-2,-1.130099874E-2
2.819275750E1,-1.626427472E-2,-2.237292193E-2,4.046979360E-3
2.824085552E1,1.038470119E-2,1.145371469E-3,-7.635809743E-5
2.828895355E1,-7.101302966E-3,2.061668551E-3,5.726857111E-3
2.833705157E1,-7.483093534E-3,9.239329956E-3,1.137735695E-2
2.838514959E1,2.504545636E-2,-1.450803829E-3,4.428769462E-3
2.843324761E1,-4.276053514E-3,-3.123046272E-2,4.505127668E-3
2.848134563E1,-8.399390616E-3,1.084284950E-2,-2.367100911E-3
2.852944365E1,-2.321286127E-2,6.108647678E-3,-1.458439697E-2
2.857754167E1,-1.710421406E-2,-1.412624773E-2,4.352411721E-3
2.862563969E1,1.069013402E-2,-1.473711245E-2,-2.672533505E-3
2.867373782E1,1.091920771E-2,9.926552884E-4,-1.832594397E-3
2.872183584E1,-2.939786762E-2,-6.032289471E-3,1.771507785E-2
2.876993386E1,-1.832594397E-3,2.390008420E-2,-4.581485991E-4
2.881803198E1,2.061668597E-2,-1.259908639E-2,2.367100911E-3
2.886613000E1,2.725984156E-2,-1.183550525E-2,-1.710421406E-2
2.891422813E1,1.122464053E-2,8.933897130E-3,-1.427896414E-2
2.896232615E1,-2.565632015E-2,-6.643154658E-3,-1.527161920E-3
2.901042427E1,3.588830587E-3,3.894262947E-3,-6.948587019E-3
2.905852240E1,1.267544460E-2,2.977965865E-3,8.628465235E-3
2.910662052E1,-4.657844082E-3,5.345066893E-4,9.010255337E-3
2.915471854E1,2.672533505E-3,1.336266659E-2,-2.061668551E-3
2.920281667E1,-1.679878100E-3,-1.809686981E-2,6.872228696E-4
2.925091480E1,1.237001177E-2,-6.948587019E-3,8.399390499E-4
2.929901292E1,-2.069304511E-2,-4.046979360E-3,-1.061377581E-2
2.934711105E1,-6.948587019E-3,1.336266659E-2,-5.879573524E-3
2.939520917E1,-6.643154658E-3,-1.374445762E-2,7.024944760E-3
2.944330740E1,5.345067009E-3,-6.872228812E-3,-3.665188793E-3
2.949140552E1,-9.086613543E-3,7.254019380E-3,2.825249685E-3
2.953950365E1,-2.031125315E-2,-4.581485991E-4,1.015562657E-2
2.958760177E1,7.635809947E-3,-6.948587019E-3,-2.290742996E-4
2.963570000E1,8.170315996E-3,-8.246674202E-3,-5.115992390E-3
2.968379813E1,-6.185005885E-3,4.810560029E-3,-3.283398226E-3
2.973189636E1,-4.123337101E-3,3.512472380E-3,1.603520010E-3
2.977999448E1,-2.443459118E-3,-7.788525894E-3,5.574141163E-3
2.982809271E1,-3.283398226E-3,4.810560029E-3,-5.345067009E-3
2.987619084E1,-9.086613543E-3,5.879573524E-3,9.621120058E-3
2.992428907E1,-2.290742937E-3,-1.534797717E-2,6.719512399E-3
2.997238730E1,3.298669681E-2,5.268708803E-3,-1.756236190E-3
3.002048552E1,-1.404988952E-2,-1.099556591E-2,1.084284950E-2
3.006858365E1,-1.466075517E-2,2.596175298E-3,6.108647678E-3
3.011668188E1,-3.741546767E-3,1.397353224E-2,-1.702785492E-2
3.016478011E1,-4.428769462E-3,4.199695308E-3,-4.123337101E-3
3.021287834E1,8.628465235E-3,-1.580612548E-2,-7.177661173E-3
3.026097657E1,2.099847607E-2,3.359756200E-3,-2.977965865E-3
3.030907490E1,-2.611446939E-2,3.054323897E-4,1.122464053E-2
3.035717313E1,-1.572976820E-2,1.779143699E-2,4.428769462E-3
3.040527136E1,4.352411721E-3,-1.107192412E-2,4.428769462E-3
3.045336959E1,1.656970754E-2,-1.328630932E-2,-9.850194678E-3
3.050146782E1,6.261364091E-3,-6.185005885E-3,-8.399390616E-3
3.054956615E1,-9.697478265E-3,7.177661173E-3,-5.268708803E-3
3.059766438E1,-7.864884101E-3,-1.527161949E-4,5.345066893E-4
3.064576271E1,1.519526169E-2,-6.872228696E-4,-2.138026757E-3
3.069386094E1,-1.030834299E-2,-3.588830587E-3,9.010255337E-3
3.074195927E1,-3.054323839E-3,5.574141163E-3,-8.399390499E-4
3.079005750E1,6.948587019E-3,-3.283398226E-3,4.046979360E-3
3.083815584E1,1.527161949E-4,-3.054323839E-3,3.817904799E-4
3.088625407E1,-1.237001177E-2,4.581485875E-3,-1.107192412E-2
3.093435240E1,9.621120058E-3,2.061668551E-3,-6.337722298E-3
3.098245073E1,6.719512399E-3,-2.244928107E-2,3.894262947E-3
3.103054907E1,3.817904973E-3,9.162971750E-3,-9.162971750E-3
3.107864730E1,-2.611446939E-2,4.199695308E-3,1.137735695E-2
3.112674563E1,-1.939495653E-2,-4.428769462E-3,6.490438245E-3
3.117484396E1,1.626427472E-2,2.367100911E-3,2.825249685E-3
3.122294230E1,-1.527161949E-4,-2.229656465E-2,2.519817324E-3
3.127104063E1,3.359756200E-3,-2.672533505E-3,-5.574141163E-3
3.131913896E1,-1.595884189E-2,1.450803829E-3,-4.581485991E-4
3.136723730E1,-1.389717404E-2,2.519817324E-3,-1.145371469E-3
3.141533563E1,3.665188793E-3,5.115992390E-3,-8.246674202E-3
3.146343396E1,2.290742996E-4,-7.406735327E-3,2.214384731E-3
3.151153230E1,-1.145371469E-3,8.552107029E-3,-9.621120058E-3
3.155963073E1,1.527161949E-4,2.672533505E-3,2.519817324E-3
3.160772907E1,-4.123337101E-3,-9.010255337E-3,9.010255337E-3
3.165582740E1,-6.872228812E-3,3.588830587E-3,-3.894262947E-3
3.170392573E1,-8.246674202E-3,1.038470119E-2,3.512472380E-3
3.175202417E1,1.374445739E-3,-2.046396956E-2,3.359756200E-3
3.180012250E1,1.824958436E-2,-1.527161920E-3,-1.221729536E-2
3.184822094E1,-1.023198478E-2,6.643154658E-3,1.603520010E-3
3.189631927E1,-1.114828233E-2,-4.352411721E-3,1.450803876E-2
3.194441761E1,7.254019380E-3,1.214093715E-2,-9.315688163E-3
3.199251605E1,3.130682046E-3,-6.490438245E-3,1.175914705E-2
3.204061438E1,1.603520103E-2,-1.305723470E-2,-5.115992390E-3
3.208871282E1,1.382081583E-2,1.756236190E-3,-4.963276442E-3
3.213681125E1,-1.351538301E-2,-4.657844082E-3,3.817904799E-4
3.218490959E1,5.650499370E-3,1.847865991E-2,-5.726857111E-3
3.223300802E1,3.817904799E-4,8.781181648E-3,4.352411721E-3
3.228110646E1,-2.061668551E-3,5.879573524E-3,-3.894262947E-3
3.232920480E1,1.404988952E-2,3.359756200E-3,-2.367100911E-3
3.237730323E1,2.825249685E-3,-3.970621154E-3,2.138026757E-3
3.242540167E1,-2.672533505E-3,8.399390616E-3,-4.657844082E-3
3.247350011E1,-3.436114406E-3,2.290742996E-4,-8.246674202E-3
3.252159854E1,6.643154658E-3,-2.901607659E-3,-1.954767294E-2
3.256969698E1,7.406735327E-3,1.603520010E-3,-1.336266659E-2
3.261779542E1,3.817904799E-4,5.421424750E-3,-2.054032870E-2
3.266589386E1,-1.504254527E-2,3.817904799E-4,1.122464053E-2
3.271399230E1,-7.635809598E-4,-2.519817324E-3,1.175914705E-2
3.276209073E1,3.512472380E-3,4.810560029E-3,-3.359756200E-3
3.281018917E1,1.481347065E-2,-3.894262947E-3,-6.872228812E-3
3.285828761E1,9.010255337E-3,-7.712167688E-3,-5.039634649E-3
3.290638605E1,-3.894262947E-3,-3.130682046E-3,-1.634063199E-2
3.295448448E1,5.955931731E-3,1.947131567E-2,-1.229365356E-2
3.300258292E1,-1.710421406E-2,-2.359465137E-2,8.323032409E-3
3.305068146E1,1.992946304E-2,2.290742996E-4,-4.276053514E-3
3.309877990E1,-2.367100911E-3,-1.298087649E-3,2.519817324E-3
3.314687834E1,-1.351538301E-2,-2.061668551E-3,6.490438245E-3
3.319497677E1,-3.359756200E-3,-6.108647678E-3,2.519817324E-3
3.324307532E1,-4.963276442E-3,1.908952487E-3,-9.621120058E-3
3.329117375E1,-6.948587019E-3,1.336266659E-2,-8.552107029E-3
3.333927219E1,-1.603520103E-2,-9.697478265E-3,-2.061668551E-3
3.338737073E1,9.162971983E-4,-1.298087649E-3,3.588830587E-3
3.343546917E1,-1.038470119E-2,-3.283398226E-3,6.643154658E-3
3.348356771E1,-4.581485875E-3,2.138026757E-3,1.832594350E-2
3.353166615E1,1.527161949E-4,-1.122464053E-2,1.145371469E-3
3.357976469E1,1.664606482E-2,-6.185005885E-3,4.963276442E-3
3.362786313E1,-2.290742937E-3,-1.931859925E-2,-1.298087649E-3
3.367596167E1,-3.207040019E-3,1.435532235E-2,-5.574141163E-3
3.372406011E1,-1.740964688E-2,1.664606482E-2,4.505127668E-3
3.377215865E1,4.581485991E-4,-9.010255337E-3,-1.298087649E-3
3.382025719E1,2.527453005E-2,4.428769462E-3,-9.239329956E-3
3.386835563E1,-1.771507785E-2,-1.511890348E-2,1.595884189E-2
3.391645417E1,-1.985310577E-3,4.581485991E-4,1.389717404E-2
3.396455271E1,-6.261364091E-3,3.817904973E-3,3.130682046E-3
3.401265125E1,-1.878409274E-2,2.222020552E-2,3.894262947E-3
3.406074969E1,-6.261364091E-3,-8.628465235E-3,-5.345066893E-4
3.410884823E1,1.970038936E-2,-3.665188793E-3,-1.153007243E-2
3.415694677E1,-5.345066893E-4,4.123337101E-3,2.214384731E-3
3.420504532E1,-1.550069358E-2,-1.175914705E-2,1.916588284E-2
3.425314375E1,1.382081583E-2,1.756236330E-2,-1.527161920E-3
3.430124230E1,7.177661173E-3,5.955931731E-3,4.657844082E-3
3.434934084E1,-4.734201822E-3,-1.473711245E-2,3.665188793E-3
3.439743938E1,1.679878100E-3,-5.879573524E-3,1.298087649E-3
3.444553782E1,-2.901607659E-3,1.519526169E-2,7.559451740E-3
3.449363636E1,-1.023198478E-2,-4.657844082E-3,2.519817324E-3
3.454173490E1,1.656970754E-2,9.162971750E-3,-2.061668551E-3
3.458983344E1,-8.093958721E-3,-7.788525894E-3,9.239329956E-3
3.463793198E1,-1.069013379E-3,7.864884101E-3,1.130099874E-2
3.468603052E1,-7.406735327E-3,-2.901607659E-3,-4.123337101E-3
3.473412896E1,-2.596175298E-3,-2.977965865E-3,-3.130682046E-3
3.478222750E1,1.374445739E-3,-2.748891478E-3,-1.366809942E-2
3.483032604E1,-2.290742996E-4,5.497782957E-3,-4.963276442E-3
3.487842459E1,-9.468403645E-3,-1.672242396E-2,-5.115992390E-3
3.492652313E1,1.038470119E-2,1.542433538E-2,-8.781181648E-3
3.497462157E1,-1.695149764E-2,-6.185005885E-3,4.657844082E-3
3.502272011E1,7.635809598E-4,-8.933897130E-3,3.283398226E-3
3.507081865E1,0.000000000E0,-1.435532235E-2,3.130682046E-3
3.511891719E1,-3.436114406E-3,7.406735327E-3,-4.428769462E-3
3.516701563E1,-9.621120058E-3,7.864884101E-3,5.268708803E-3
3.521511417E1,-5.955931731E-3,-1.275180187E-2,-3.283398226E-3
3.526321271E1,2.916879393E-2,9.086613543E-3,-1.634063199E-2
3.531131125E1,-5.497782957E-3,-1.931859925E-2,6.032289471E-3
3.535940969E1,-7.406735327E-3,-9.773836471E-3,2.290742937E-3
3.540750823E1,3.130682046E-3,1.153007243E-2,-1.756236190E-3
3.545560677E1,-1.114828233E-2,-7.864884101E-3,-1.298087649E-3
3.550370521E1,2.977965865E-3,-1.137735695E-2,-1.985310577E-3
3.555180375E1,1.320995111E-2,-7.788525894E-3,-9.544761851E-3
3.559990219E1,-1.435532235E-2,-7.635809598E-4,-1.527161920E-3
3.564800073E1,-1.824958436E-2,1.572976820E-2,1.473711245E-2
3.569609927E1,-1.695149764E-2,-4.581485875E-3,1.107192412E-2
3.574419771E1,1.374445739E-3,8.399390499E-4,4.123337101E-3
3.579229625E1,-1.366809942E-2,-1.870773360E-2,1.641699113E-2
3.584039469E1,-1.275180187E-2,-3.894262947E-3,7.101302966E-3
3.588849313E1,-7.254019380E-3,3.894262947E-3,2.214384731E-3
3.593659167E1,-7.254019380E-3,-2.977965865E-3,-7.559451740E-3
3.598469011E1,2.771798894E-2,-6.185005885E-3,-1.557705179E-2
3.603278865E1,2.290742996E-4,-1.786779426E-2,3.054323839E-3
3.608088709E1,-2.290742844E-2,2.176205814E-2,3.283398226E-3
3.612898552E1,-3.695731983E-2,8.781181648E-3,2.107483521E-2
3.617708407E1,-1.389717404E-2,-2.779434808E-2,2.443459071E-2
3.622518250E1,1.817322709E-2,2.290742937E-3,-4.199695308E-3
3.627328094E1,-1.481347065E-2,-4.581485991E-4,3.054323839E-3
3.632137938E1,-4.810560029E-3,-6.108647794E-4,-3.054323897E-4
3.636947792E1,6.872228812E-3,-3.436114406E-3,6.108647678E-3
3.641757636E1,-5.345066893E-4,-1.076649129E-2,3.207040019E-3
3.646567480E1,1.695149764E-2,1.267544460E-2,1.603520010E-3
3.651377323E1,-1.084284950E-2,-1.588248461E-2,-1.069013379E-3
3.656187167E1,-2.458730713E-2,2.199113183E-2,-7.559451740E-3
3.660997011E1,-3.665188793E-3,5.421424750E-3,6.795870606E-3
3.665806854E1,1.802051067E-2,-6.872228696E-4,-1.519526169E-2
3.670616698E1,1.481347065E-2,3.207040019E-3,6.490438245E-3
3.675426542E1,-1.832594397E-3,-3.130682046E-3,1.114828233E-2
3.680236386E1,-6.872228812E-3,1.886045001E-2,1.320995111E-2
3.685046230E1,-2.412915789E-2,6.643154658E-3,8.781181648E-3
3.689856073E1,1.695149764E-2,3.130682046E-3,5.803215317E-3
3.694665917E1,6.795870606E-3,-1.687514037E-2,-1.145371469E-3
3.699475761E1,1.114828233E-2,1.374445762E-2,-1.336266659E-2
3.704285604E1,-1.542433538E-2,5.803215317E-3,1.046105940E-2
3.709095448E1,2.443459118E-3,-6.566796452E-3,9.315688163E-3
3.713905282E1,1.702785492E-2,-7.635809743E-5,-1.145371469E-3
3.718715125E1,-3.207040019E-3,1.053741761E-2,6.032289471E-3
3.723524969E1,-1.473711245E-2,-1.748600416E-2,1.649334840E-2
3.728334813E1,9.392046370E-3,7.254019380E-3,4.734201822E-3
3.733144646E1,-1.175914705E-2,2.183841541E-2,-2.076940238E-2
3.737954490E1,-2.901607659E-3,2.252563834E-2,-9.621120058E-3
3.742764334E1,2.336557768E-2,2.359465137E-2,-1.412624773E-2
3.747574167E1,2.596175298E-3,1.618791744E-2,-8.093958721E-3
3.752384011E1,-1.603520103E-2,9.162971983E-4,2.443459118E-3
3.757193844E1,-4.810560029E-3,-1.992946304E-2,1.595884189E-2
3.762003688E1,1.756236330E-2,-5.955931731E-3,-2.290742996E-4
3.766813521E1,-1.099556591E-2,4.810560029E-3,2.519817324E-3
3.771623365E1,-2.031125315E-2,3.283398226E-3,4.657844082E-3
3.776433198E1,1.343902480E-2,-9.544761851E-3,-6.261364091E-3
3.781243042E1,1.786779426E-2,-7.024944760E-3,-6.261364091E-3
3.786052875E1,-1.229365356E-2,8.552107029E-3,-5.879573524E-3
3.790862719E1,-1.023198478E-2,9.697478265E-3,5.192350596E-3
3.795672552E1,9.010255337E-3,-8.933897130E-3,-2.825249685E-3
3.800482396E1,2.275471389E-2,-9.544761851E-3,2.443459118E-3
3.805292230E1,-3.207040019E-3,-8.323032409E-3,2.977965865E-3
3.810102063E1,-8.475748822E-3,5.726857111E-3,6.108647678E-3
3.814911907E1,-3.665188793E-3,-8.399390616E-3,2.748891478E-3
3.819721740E1,8.399390499E-4,-4.886918236E-3,9.926552884E-4
3.824531573E1,-5.192350596E-3,-3.894262947E-3,1.603520010E-3
3.829341407E1,-1.527161949E-4,-8.628465235E-3,6.566796452E-3
3.834151250E1,4.657844082E-3,-1.595884189E-2,7.559451740E-3
3.838961084E1,7.254019380E-3,-3.894262947E-3,1.175914705E-2
3.843770917E1,-3.588830587E-3,-4.963276442E-3,2.519817324E-3
3.848580750E1,2.901607659E-3,7.788525894E-3,-9.162971983E-4
3.853390594E1,-2.283107117E-2,-8.093958721E-3,5.421424750E-3
3.858200427E1,-1.603520010E-3,4.886918236E-3,-8.475748822E-3
3.863010261E1,4.657844082E-3,4.581485991E-4,1.527161920E-3
3.867820094E1,-2.901607659E-3,1.030834299E-2,-1.046105940E-2
3.872629927E1,-5.421424750E-3,1.572976820E-2,-3.054323897E-4
3.877439761E1,-9.162971983E-4,-1.565340906E-2,7.177661173E-3
3.882249594E1,8.781181648E-3,-1.450803829E-3,8.017600514E-3
3.887059427E1,-1.458439697E-2,-3.054323897E-4,5.345066893E-4
3.891869261E1,-3.817904973E-3,8.781181648E-3,-1.069013402E-2
3.896679094E1,-2.825249685E-3,-2.596175298E-3,-8.628465235E-3
3.901488927E1,6.261364091E-3,7.864884101E-3,-1.473711245E-2
3.906298761E1,-1.679878100E-3,1.756236190E-3,7.788525894E-3
3.911108594E1,-2.748891478E-3,-1.076649129E-2,8.933897130E-3
3.915918427E1,1.122464053E-2,-1.565340906E-2,7.101302966E-3
3.920728261E1,4.581485875E-3,9.392046370E-3,-1.091920771E-2
3.925538094E1,-1.412624773E-2,-4.428769462E-3,3.817904799E-4
3.930347927E1,3.817904973E-3,-1.908952487E-3,-5.268708803E-3
3.935157761E1,-1.908952487E-3,9.086613543E-3,-1.053741761E-2
3.939967584E1,7.101302966E-3,-6.872228696E-4,8.093958721E-3
3.944777417E1,-2.244928107E-2,-3.405570984E-2,1.656970754E-2
3.949587250E1,5.497782957E-3,4.734201822E-3,1.855501719E-2
3.954397084E1,-8.093958721E-3,3.588830587E-3,2.061668551E-3
3.959206917E1,-8.399390616E-3,-4.886918236E-3,9.926552884E-4
3.964016740E1,4.505127668E-3,-7.635809598E-4,-2.031125315E-2
3.968826573E1,3.359756200E-3,1.374445739E-3,7.635809743E-5
3.973636407E1,-1.496618707E-2,-2.390008420E-2,1.046105940E-2
3.978446230E1,3.054323839E-3,2.290742996E-4,8.246674202E-3
3.983256063E1,-4.138609022E-2,-1.710421406E-2,9.850194678E-3
3.988065896E1,-4.283689335E-2,-2.015853859E-2,2.420551702E-2
3.992875719E1,-2.115119249E-2,-2.298378758E-2,4.581485875E-3
3.997685552E1,1.847865991E-2,-4.581485875E-3,-8.475748822E-3
4.002495386E1,1.756236190E-3,-1.511890348E-2,-3.359756200E-3
4.007305209E1,-1.076649129E-2,1.214093715E-2,-8.399390499E-4
4.012115042E1,-1.832594350E-2,8.857538924E-3,-8.399390499E-4
4.016924865E1,3.283398226E-3,-3.130682046E-3,-5.268708803E-3
4.021734698E1,8.093958721E-3,-5.421424750E-3,-1.229365356E-2
4.026544521E1,-1.221729559E-3,-6.795870606E-3,-1.916588284E-2
4.031354354E1,4.123337101E-3,2.069304511E-2,-1.931859925E-2
4.036164177E1,-6.948587019E-3,-4.199695308E-3,7.635809743E-5
4.040974011E1,4.581485875E-3,-7.788525894E-3,7.101302966E-3
4.045783834E1,1.992946304E-2,7.864884101E-3,-1.069013379E-3
4.050593667E1,1.756236190E-3,-1.527161949E-4,-2.367100911E-3
4.055403490E1,-6.032289471E-3,-6.872228696E-4,4.657844082E-3
4.060213313E1,-1.069013379E-3,9.086613543E-3,-1.336266659E-2
4.065023146E1,2.977965865E-3,-9.239329956E-3,-3.054323839E-3
4.069832969E1,1.145371422E-2,8.933897130E-3,-1.947131567E-2
4.074642792E1,-1.450803829E-3,4.046979360E-3,-6.337722298E-3
4.079452625E1,5.574141163E-3,-1.618791744E-2,1.038470119E-2
4.084262448E1,1.374445762E-2,-4.352411721E-3,1.351538301E-2
4.089072271E1,-1.664606482E-2,-7.024944760E-3,4.886918236E-3
4.093882105E1,-2.443459118E-3,1.000291109E-2,8.628465235E-3
4.098691927E1,3.207040019E-3,-1.588248461E-2,-5.192350596E-3
4.103501750E1,1.160643063E-2,-8.781181648E-3,-7.864884101E-3
4.108311573E1,-2.054032870E-2,-1.985310577E-3,3.283398226E-3
4.113121407E1,-1.664606482E-2,3.817904799E-4,2.290742996E-4
4.117931230E1,1.298087649E-3,-2.596175298E-3,-6.337722298E-3
4.122741052E1,-1.817322709E-2,-1.679878100E-3,-4.505127668E-3
4.127550875E1,-1.259908639E-2,1.145371469E-3,9.086613543E-3
4.132360698E1,-3.176496923E-2,-2.535088919E-2,3.970621154E-3
4.137170521E1,-2.977965865E-3,6.872228812E-3,2.825249685E-3
4.141980344E1,-7.864884101E-3,-1.137735695E-2,1.908952487E-3
4.146790177E1,3.283398226E-3,-2.061668551E-3,9.926552884E-4
4.151600000E1,-1.023198478E-2,-3.130682046E-3,6.643154658E-3
4.156409823E1,-1.084284950E-2,-5.879573524E-3,7.101302966E-3
4.161219646E1,-3.054323839E-3,0.000000000E0,2.214384731E-3
4.166029469E1,-1.061377581E-2,-1.298087649E-3,8.093958721E-3
4.170839292E1,-5.955931731E-3,2.061668551E-3,-6.108647678E-3
4.175649115E1,-7.177661173E-3,-4.199695308E-3,2.901607659E-3
4.180458938E1,-6.872228696E-4,4.123337101E-3,-6.261364091E-3
4.185268761E1,-6.872228812E-3,-1.091920771E-2,9.850194678E-3
4.190078573E1,-5.574141163E-3,-2.267835476E-2,1.198822167E-2
4.194888396E1,5.115992390E-3,8.246674202E-3,9.926552884E-4
4.199698219E1,-6.414080039E-3,1.298087649E-2,9.239329956E-3
4.204508042E1,-1.091920771E-2,0.000000000E0,-2.672533505E-3
4.209317865E1,1.023198478E-2,1.130099874E-2,-2.367100911E-3
4.214127688E1,4.734201822E-3,3.054323839E-3,-4.199695308E-3
4.218937511E1,6.643154658E-3,1.771507785E-2,-2.160934173E-2
4.223747323E1,-1.069013379E-3,-9.086613543E-3,6.795870606E-3
4.228557146E1,5.497782957E-3,-6.643154658E-3,-2.367100911E-3
4.233366969E1,1.023198478E-2,1.771507785E-2,6.185005885E-3
4.238176792E1,-9.392046370E-3,-1.145371422E-2,1.404988952E-2
4.242986605E1,1.412624773E-2,4.505127668E-3,8.399390499E-4
4.247796427E1,-8.704823442E-3,7.330377586E-3,-2.061668551E-3
4.252606250E1,-7.330377586E-3,1.908952487E-3,-3.588830587E-3
4.257416073E1,1.931859925E-2,9.086613543E-3,-1.466075517E-2
4.262225886E1,-5.497782957E-3,1.122464053E-2,-1.130099874E-2
4.267035709E1,-8.628465235E-3,-5.039634649E-3,1.473711245E-2
4.271845521E1,1.351538301E-2,2.367100911E-3,7.024944760E-3
4.276655344E1,2.519817324E-3,2.290742937E-3,8.017600514E-3
4.281465167E1,-8.399390499E-4,9.086613543E-3,-3.130682046E-3
4.286274980E1,8.323032409E-3,-3.512472380E-3,-1.000291109E-2
4.291084802E1,9.697478265E-3,-1.527161949E-4,-2.344193682E-2
4.295894615E1,6.337722298E-3,1.970038936E-2,-1.702785492E-2
4.300704438E1,-4.123337101E-3,-6.414080039E-3,-3.588830587E-3
4.305514250E1,7.177661173E-3,2.443459118E-3,-3.588830587E-3
4.310324073E1,2.290742937E-3,8.170315996E-3,4.734201822E-3
4.315133886E1,-3.283398226E-3,-9.010255337E-3,4.963276442E-3
4.319943709E1,7.788525894E-3,1.214093715E-2,-3.894262947E-3
4.324753521E1,1.145371469E-3,2.672533505E-3,-8.475748822E-3
4.329563334E1,4.734201822E-3,-7.712167688E-3,-1.550069358E-2
4.334373157E1,1.527161920E-3,5.345066893E-4,-3.283398226E-3
4.339182969E1,-1.374445739E-3,-4.581485991E-4,-1.374445739E-3
4.343992782E1,1.832594397E-3,6.108647794E-4,1.397353224E-2
4.348802605E1,-1.718057133E-2,-8.628465235E-3,7.330377586E-3
4.353612417E1,1.679878100E-3,3.588830587E-3,1.298087649E-3
4.358422230E1,3.283398226E-3,-1.259908639E-2,-6.032289471E-3
4.363232042E1,3.054323897E-4,-1.389717404E-2,-5.192350596E-3
4.368041865E1,-1.084284950E-2,9.162971983E-4,-6.795870606E-3
4.372851677E1,-6.566796452E-3,4.123337101E-3,-4.657844082E-3
4.377661490E1,-3.970621154E-3,-1.007926930E-2,-4.199695308E-3
4.382471302E1,1.069013379E-3,3.894262947E-3,-9.926552884E-4
4.387281115E1,-1.214093715E-2,-3.359756200E-3,5.955931731E-3
4.392090938E1,-9.010255337E-3,-3.130682046E-3,2.061668551E-3
4.396900750E1,4.123337101E-3,9.086613543E-3,-1.145371469E-3
4.401710563E1,-1.069013402E-2,-1.603520010E-3,-8.246674202E-3
4.406520375E1,5.115992390E-3,-1.099556591E-2,8.552107029E-3
4.411330188E1,-1.175914705E-2,-6.490438245E-3,-1.153007243E-2
4.416140000E1,-3.512472380E-3,1.611155830E-2,6.185005885E-3
4.420949813E1,-3.512472380E-3,-1.924224012E-2,1.084284950E-2
4.425759625E1,7.024944760E-3,-9.544761851E-3,5.268708803E-3
4.430569438E1,-6.261364091E-3,1.000291109E-2,-3.894262947E-3
4.435379250E1,-6.185005885E-3,1.244636998E-2,2.367100911E-3
4.440189063E1,-1.145371469E-3,-1.740964688E-2,3.817904973E-3
4.444998875E1,1.450803876E-2,-1.756236190E-3,-6.108647678E-3
4.449808688E1,-1.404988952E-2,1.374445762E-2,5.650499370E-3
4.454618500E1,2.672533505E-3,-7.635809598E-4,-6.643154658E-3
4.459428313E1,1.695149764E-2,3.970621154E-3,-2.367100911E-3
4.464238115E1,-4.963276442E-3,-3.741546767E-3,2.519817324E-3
4.469047927E1,4.123337101E-3,2.993237413E-2,-6.643154658E-3
4.473857740E1,1.237001177E-2,2.924515121E-2,-2.748891478E-3
4.478667552E1,1.206457894E-2,-4.352411721E-3,-7.941242307E-3
4.483477365E1,1.122464053E-2,1.450803829E-3,-5.421424750E-3
4.488287177E1,-3.512472380E-3,1.832594397E-3,1.282816008E-2
4.493096980E1,5.192350596E-3,1.145371469E-3,7.101302966E-3
4.497906792E1,-4.734201822E-3,-6.643154658E-3,2.122755162E-2
4.502716604E1,-5.497782957E-3,5.650499370E-3,6.337722298E-3
4.507526417E1,1.214093715E-2,-7.635809743E-5,6.414080039E-3
4.512336230E1,-6.872228696E-4,-3.665188793E-3,-2.428187430E-2
4.517146032E1,9.010255337E-3,1.145371422E-2,-1.481347065E-2
4.521955844E1,-1.756236330E-2,-1.855501719E-2,-2.122755162E-2
4.526765657E1,1.954767294E-2,1.244636998E-2,-1.221729536E-2
4.531575469E1,-3.817904973E-3,-7.635809743E-5,5.726857111E-3
4.536385271E1,0.000000000E0,4.810560029E-3,1.840230078E-2
4.541195084E1,-6.872228696E-4,-4.810560029E-3,1.420260593E-2
4.546004896E1,5.955931731E-3,-2.825249685E-3,1.603520010E-3
4.550814657E1,9.010255337E-3,-1.328630932E-2,-4.734201822E-3
4.555624511E1,-2.977965865E-3,-6.337722298E-3,-1.053741761E-2
4.560434323E1,-2.138026757E-3,1.992946304E-2,-5.421424750E-3
4.565244136E1,-6.261364091E-3,-8.857538924E-3,1.168278884E-2
4.570053938E1,1.771507785E-2,3.817904799E-4,9.850194678E-3
4.574863750E1,-3.191768378E-2,-3.359756200E-3,8.246674202E-3
4.579673563E1,-9.850194678E-3,2.244928107E-2,1.298087649E-3
4.584483365E1,-4.581485875E-3,-2.664897591E-2,-1.351538301E-2
4.589293177E1,1.763872057E-2,-1.038470119E-2,-1.504254527E-2
4.594102990E1,-1.000291109E-2,4.734201822E-3,-1.046105940E-2
4.598912792E1,-2.863428742E-2,-2.901607659E-3,1.091920771E-2
4.603722605E1,-1.015562657E-2,-7.635809743E-5,9.315688163E-3
4.608532417E1,2.977965865E-3,-4.963276442E-3,1.137735695E-2
4.613342230E1,3.894262947E-3,-1.366809942E-2,1.015562657E-2
4.618152032E1,4.581485991E-4,-1.679878100E-3,-6.643154658E-3
4.622961844E1,-3.512472380E-3,1.214093715E-2,-1.084284950E-2
4.627771657E1,5.039634649E-3,7.177661173E-3,-7.101302966E-3
4.632581469E1,1.527161949E-4,-6.185005885E-3,4.276053514E-3
4.637391271E1,-1.458439697E-2,-2.764163166E-2,1.679878123E-2
4.642201084E1,1.007926930E-2,1.214093715E-2,5.803215317E-3
4.647010896E1,-3.031416424E-2,-9.086613543E-3,1.275180187E-2
4.651820709E1,-2.443459118E-3,7.635809947E-3,4.199695308E-3
4.656630511E1,9.697478265E-3,-7.635809743E-5,3.817904799E-4
4.661440323E1,-8.399390616E-3,-3.588830587E-3,-5.726857111E-3
4.666250136E1,2.214384731E-3,1.580612548E-2,4.886918236E-3
4.671059948E1,-1.542433538E-2,-1.695149764E-2,5.726857111E-3
4.675869761E1,7.177661173E-3,8.093958721E-3,-4.581485991E-4
4.680679573E1,-4.276053514E-3,1.527161920E-3,-2.901607659E-3
4.685489386E1,9.621120058E-3,4.810560029E-3,-9.697478265E-3
4.690299198E1,-1.244636998E-2,2.596175298E-3,-1.527161949E-4
4.695109000E1,1.527161949E-4,-2.214384731E-3,1.832594397E-3
4.699918813E1,1.175914705E-2,-1.832594397E-3,4.352411721E-3
4.704728625E1,-4.428769462E-3,-1.534797717E-2,1.389717404E-2
4.709538438E1,3.054323897E-4,1.542433538E-2,3.207040019E-3
4.714348261E1,-2.054032870E-2,-6.872228696E-4,7.559451740E-3
4.719158073E1,1.359174121E-2,8.781181648E-3,-8.704823442E-3
4.723967886E1,8.475748822E-3,-6.872228812E-3,-5.803215317E-3
4.728777698E1,9.239329956E-3,-7.330377586E-3,2.290742937E-3
4.733587511E1,-1.527161949E-4,6.261364091E-3,-8.399390499E-4
4.738397323E1,-2.573267929E-2,1.145371469E-3,9.239329956E-3
4.743207136E1,6.719512399E-3,6.948587019E-3,-5.955931731E-3
4.748016959E1,2.214384731E-3,-6.337722298E-3,-4.505127668E-3
4.752826771E1,-8.170315996E-3,-1.206457894E-2,-1.069013402E-2
4.757636584E1,5.345067009E-3,1.061377581E-2,-1.030834299E-2
4.762446396E1,-1.175914705E-2,-5.879573524E-3,-1.527161949E-4
4.767256219E1,1.053741761E-2,-3.665188793E-3,-3.436114406E-3
4.772066032E1,1.985310577E-3,-5.192350596E-3,8.323032409E-3
4.776875855E1,-9.926552884E-3,2.290742937E-3,-2.901607659E-3
4.781685667E1,-1.053741761E-2,7.559451740E-3,1.908952487E-3
4.786495480E1,1.069013379E-3,-1.221729559E-3,-2.031125315E-2
4.791305302E1,1.542433538E-2,1.672242396E-2,-8.323032409E-3
4.796115115E1,-2.596175298E-3,-2.756527252E-2,-6.643154658E-3
4.800924938E1,2.031125315E-2,9.468403645E-3,-6.108647678E-3
4.805734761E1,-2.710712515E-2,9.392046370E-3,-1.145371469E-3
4.810544573E1,-7.635809598E-4,1.351538301E-2,1.679878100E-3
4.815354396E1,1.664606482E-2,-1.542433538E-2,-2.061668551E-3
4.820164209E1,8.093958721E-3,-6.643154658E-3,-2.367100911E-3
4.824974032E1,-1.725693047E-2,-6.948587019E-3,-7.635809598E-4
4.829783855E1,-1.298087649E-2,2.748891478E-3,-8.399390499E-4
4.834593677E1,-3.359756200E-3,-3.436114406E-3,-5.345067009E-3
4.839403490E1,-1.527161949E-4,-8.933897130E-3,-3.283398226E-3
4.844213313E1,-9.162971750E-3,-6.337722298E-3,1.908952487E-3
4.849023136E1,-9.239329956E-3,-2.977965865E-3,1.534797717E-2
4.853832959E1,-1.069013379E-3,-7.941242307E-3,6.795870606E-3
4.858642782E1,-5.345067009E-3,-1.992946304E-2,1.412624773E-2
4.863452594E1,1.275180187E-2,1.069013402E-2,-2.367100911E-3
4.868262417E1,-2.122755162E-2,-1.527161920E-3,-2.290742996E-4
4.873072240E1,8.399390499E-4,2.061668551E-3,-2.519817324E-3
4.877882063E1,1.145371469E-3,-2.748891478E-3,-6.719512399E-3
4.882691886E1,-3.665188793E-3,-4.276053514E-3,3.741546767E-3
4.887501709E1,-5.192350596E-3,9.697478265E-3,5.574141163E-3
4.892311532E1,-3.512472380E-3,-6.108647794E-4,1.130099874E-2
4.897121355E1,-9.315688163E-3,-6.566796452E-3,5.421424750E-3
4.901931177E1,9.926552884E-3,1.122464053E-2,9.926552884E-4
4.906741000E1,-5.039634649E-3,-9.926552884E-4,-7.788525894E-3
4.911550823E1,7.024944760E-3,-5.650499370E-3,-4.657844082E-3
4.916360646E1,-1.664606482E-2,-4.352411721E-3,3.054323897E-4
4.921170469E1,-2.519817324E-3,-2.748891478E-3,6.108647678E-3
4.925980292E1,1.130099874E-2,9.239329956E-3,6.108647794E-4
4.930790115E1,-8.552107029E-3,-5.574141163E-3,1.137735695E-2
4.935599938E1,-1.756236190E-3,8.246674202E-3,3.054323897E-4
4.940409761E1,-4.123337101E-3,-1.603520010E-3,1.076649129E-2
4.945219584E1,7.635809743E-5,-5.497782957E-3,-6.108647678E-3
4.950029417E1,1.527161989E-2,2.160934173E-2,-1.298087649E-2
4.954839240E1,-1.763872057E-2,-1.000291109E-2,4.199695308E-3
4.959649063E1,2.069304511E-2,1.550069358E-2,-9.773836471E-3
4.964458886E1,-8.246674202E-3,-3.665188793E-3,1.053741761E-2
4.969268709E1,2.519817324E-3,7.024944760E-3,-4.199695308E-3
4.974078532E1,1.198822167E-2,7.635809598E-4,3.894262947E-3
4.978888365E1,-1.175914705E-2,-2.267835476E-2,1.191186346E-2
4.983698188E1,1.985310577E-3,3.504836559E-2,-1.427896414E-2
4.988508011E1,-4.963276442E-3,-4.810560029E-3,8.475748822E-3
4.993317834E1,1.382081583E-2,-1.229365356E-2,-6.948587019E-3
4.998127657E1,7.941242307E-3,2.145662531E-2,-1.458439697E-2
5.002937490E1,-7.483093534E-3,8.399390499E-4,1.527161949E-4
5.007747313E1,1.473711245E-2,2.061668551E-3,-9.544761851E-3
5.012557136E1,5.955931731E-3,5.726857111E-3,-1.458439697E-2
5.017366959E1,-1.007926930E-2,2.290742996E-4,-8.475748822E-3
5.022176782E1,2.634354308E-2,4.581485991E-4,-1.695149764E-2
5.026986615E1,1.175914705E-2,8.323032409E-3,-7.864884101E-3
5.031796438E1,-1.802051067E-2,1.809686981E-2,-1.091920771E-2
5.036606261E1,-1.053741761E-2,1.649334840E-2,-6.872228696E-4
5.041416094E1,2.092211880E-2,-3.512472380E-3,-3.588830587E-3
5.046225917E1,4.810560029E-3,-6.261364091E-3,-4.810560029E-3
5.051035740E1,-6.795870606E-3,2.008217946E-2,1.145371469E-3
5.055845563E1,-1.870773360E-2,-5.345066893E-4,-6.643154658E-3
5.060655396E1,1.466075517E-2,-6.490438245E-3,-1.366809942E-2
5.065465219E1,1.030834299E-2,2.672533505E-3,-1.160643063E-2
5.070275042E1,-2.015853859E-2,-3.741546767E-3,-1.527161920E-3
5.075084865E1,5.039634649E-3,1.794415340E-2,4.505127668E-3
5.079894698E1,-2.397644334E-2,-2.817613818E-2,2.206749097E-2
5.084704521E1,-5.345067009E-3,8.933897130E-3,-2.825249685E-3
5.089514344E1,-4.428769462E-3,6.643154658E-3,1.168278884E-2
5.094324177E1,-1.473711245E-2,-3.000873141E-2,9.086613543E-3
5.099134000E1,2.970330045E-2,1.153007243E-2,-1.603520010E-3
5.103943823E1,-1.488982886E-2,-4.963276442E-3,4.657844082E-3
5.108753657E1,4.276053514E-3,1.351538301E-2,2.672533505E-3
5.113563480E1,1.947131567E-2,-2.451094985E-2,1.183550525E-2
5.118373302E1,-3.359756200E-3,-1.954767294E-2,1.603520103E-2
5.123183136E1,-3.092502989E-2,8.399390616E-3,3.619373962E-2
5.127992959E1,-4.627300799E-2,-1.557705179E-2,3.642281145E-2
5.132802782E1,-8.093958721E-3,3.054323839E-3,7.864884101E-3
5.137612615E1,-2.825249685E-3,2.214384731E-3,-1.550069358E-2
5.142422438E1,1.084284950E-2,2.527453005E-2,-3.207040206E-2
5.147232261E1,6.032289471E-3,0.000000000E0,-2.160934173E-2
5.152042084E1,1.908952487E-3,2.672533505E-3,-4.810560029E-3
5.156851917E1,-3.283398226E-3,1.634063199E-2,3.436114406E-3
5.161661740E1,-6.795870606E-3,-6.872228696E-4,7.177661173E-3
5.166471563E1,7.635809598E-4,2.290742937E-3,6.108647794E-4
5.171281396E1,5.268708803E-3,1.023198478E-2,-6.795870606E-3
5.176091219E1,2.458730713E-2,-1.221729536E-2,-8.093958721E-3
5.180901042E1,-1.527161949E-4,-2.748891525E-2,-1.947131567E-2
5.185710875E1,-3.703367710E-2,-8.017600514E-3,1.145371422E-2
5.190520698E1,-2.199113183E-2,2.290742844E-2,3.016144782E-2
5.195330521E1,2.244928107E-2,-1.985310577E-2,1.137735695E-2
5.200140354E1,2.405280061E-2,-1.404988952E-2,8.781181648E-3
5.204950177E1,-1.435532235E-2,1.916588284E-2,3.130682046E-3
5.209760000E1,-6.566796452E-3,1.427896414E-2,7.788525894E-3
5.214569834E1,1.840230078E-2,-1.603520103E-2,-6.032289471E-3
5.219379657E1,2.222020552E-2,1.863137633E-2,-1.443168055E-2
5.224189550E1,-1.992946304E-2,-6.872228696E-4,1.572976820E-2
5.228999383E1,1.634063199E-2,1.397353224E-2,2.214384731E-3
5.233809206E1,1.259908639E-2,6.795870606E-3,5.574141163E-3
5.238619029E1,-1.084284950E-2,-1.343902480E-2,2.687804960E-2
5.243428863E1,5.497782957E-3,2.008217946E-2,9.468403645E-3
5.248238686E1,-1.901316643E-2,-2.748891478E-3,6.795870606E-3
5.253048508E1,5.421424750E-3,1.336266659E-2,-1.672242396E-2
5.257858331E1,4.734201822E-3,1.053741761E-2,-3.504836559E-2
5.262668165E1,-7.177661173E-3,2.443459118E-3,-3.016144782E-2
5.267477988E1,9.162971983E-4,-3.741546767E-3,-3.688096255E-2
5.272287811E1,1.389717404E-2,1.664606482E-2,-2.153298259E-2
5.277097644E1,2.977965865E-3,-3.130682046E-3,2.977965865E-3
5.281907467E1,1.023198478E-2,3.054323839E-3,1.382081583E-2
5.286717290E1,-7.177661173E-3,-9.544761851E-3,1.977674663E-2
5.291527123E1,9.315688163E-3,5.421424750E-3,7.330377586E-3
5.296336946E1,-5.650499370E-3,-5.497782957E-3,-1.191186346E-2
5.301146769E1,8.704823442E-3,2.977965865E-3,-1.237001177E-2
5.305956592E1,1.328630932E-2,8.475748822E-3,-2.306014486E-2
5.310766425E1,2.412915789E-2,8.552107029E-3,-6.490438245E-3
5.315576248E1,-3.703367710E-2,-1.420260593E-2,1.053741761E-2
5.320386071E1,-4.520399496E-2,1.488982886E-2,1.412624773E-2
5.325195894E1,-2.825249545E-2,1.015562657E-2,-2.397644334E-2
5.330005727E1,2.122755162E-2,-1.313359290E-2,-5.123628303E-2
5.334815550E1,1.756236330E-2,-6.055197120E-2,-2.649625950E-2
5.339625373E1,1.069013402E-2,3.512472380E-3,-3.031416424E-2
5.344435196E1,0.000000000E0,2.428187430E-2,-3.016144782E-2
5.349245019E1,1.183550525E-2,-1.580612548E-2,-3.054323897E-4
5.354054852E1,3.283398226E-2,-8.704823442E-3,1.931859925E-2
5.358864675E1,1.427896414E-2,-5.574141163E-3,1.931859925E-2
5.363674498E1,-5.421424750E-3,9.468403645E-3,2.939786762E-2
5.368484321E1,-2.496909723E-2,-1.756236190E-3,3.336848691E-2
5.373294154E1,-1.695149764E-2,1.191186346E-2,8.399390616E-3
5.378103977E1,-1.237001177E-2,-4.276053514E-3,6.414080039E-3
5.382913800E1,-8.017600514E-3,-2.145662531E-2,-1.756236190E-3
5.387723623E1,7.788525894E-3,1.427896414E-2,-3.359756200E-3
5.392533446E1,-5.726857111E-3,-7.941242307E-3,6.185005885E-3
5.397343279E1,7.177661173E-3,8.170315996E-3,1.901316643E-2
5.402153102E1,-1.229365356E-2,-5.726857111E-3,2.237292193E-2
5.406962925E1,-1.786779426E-2,-9.468403645E-3,1.870773360E-2
5.411772748E1,6.108647794E-4,1.237001177E-2,1.756236190E-3
5.416582571E1,-1.320995111E-2,-1.473711245E-2,3.741546767E-3
5.421392394E1,2.138026757E-3,7.635809947E-3,-1.634063199E-2
5.426202227E1,-2.825249545E-2,1.756236190E-3,4.963276442E-3
5.431012050E1,-1.557705179E-2,-4.810560029E-3,4.352411721E-3
5.435821873E1,2.878700197E-2,-7.330377586E-3,-1.145371422E-2
5.440631696E1,-2.901607659E-3,-2.817613818E-2,-1.061377581E-2
5.445441519E1,-2.122755162E-2,2.710712515E-2,-7.254019380E-3
5.450251342E1,-2.336557768E-2,1.588248461E-2,-1.611155830E-2
5.455061165E1,4.459312931E-2,-1.756236330E-2,-1.580612548E-2
5.459870998E1,2.183841541E-2,-3.115410358E-2,-4.199695308E-3
5.464680821E1,-4.214967042E-2,2.985601686E-2,4.046979360E-3
5.469490644E1,-5.100720748E-2,1.336266659E-2,3.436114406E-3
5.474300467E1,9.926552884E-3,-9.926552884E-4,-1.023198478E-2
5.479110290E1,1.114828233E-2,1.030834299E-2,-3.840812296E-2
5.483920113E1,1.733328775E-2,1.527161989E-2,-2.916879393E-2
5.488729936E1,2.023489587E-2,-2.939786762E-2,5.803215317E-3
5.493539758E1,4.276053514E-3,2.412915789E-2,1.870773360E-2
5.498349581E1,-2.649625950E-2,2.160934173E-2,3.917170316E-2
5.503159415E1,2.596175298E-3,-1.023198478E-2,4.100430012E-2
5.507969238E1,2.069304511E-2,6.490438245E-3,2.573267929E-2
5.512779060E1,2.267835476E-2,-1.450803876E-2,2.901607659E-3
5.517588883E1,3.077231348E-2,1.488982886E-2,7.635809743E-5
5.522398706E1,-3.634645417E-2,-1.840230078E-2,1.389717404E-2
5.527208529E1,3.207040019E-3,3.375028074E-2,-7.254019380E-3
5.532018352E1,4.199695308E-3,-6.185005885E-3,-2.008217946E-2
5.536828175E1,2.382372692E-2,-1.595884189E-2,-2.405280061E-2
5.541637998E1,-6.032289471E-3,2.160934173E-2,-5.115992390E-3
5.546447821E1,-3.008509055E-2,1.832594397E-3,3.207040019E-3
5.551257644E1,2.153298259E-2,5.345067009E-3,-3.588830587E-3
5.556067467E1,3.054323897E-4,-2.229656465E-2,5.879573524E-3
5.560877290E1,-4.810560029E-3,6.261364091E-3,-1.679878100E-3
5.565687113E1,-1.603520010E-3,1.718057133E-2,-3.436114406E-3
5.570496936E1,-6.261364091E-3,-3.970621154E-3,-2.748891478E-3
5.575306769E1,7.941242307E-3,1.298087649E-3,-2.046396956E-2
5.580116592E1,1.175914705E-2,1.733328775E-2,-1.145371422E-2
5.584926415E1,-1.420260593E-2,-1.015562657E-2,-3.283398226E-3
5.589736238E1,4.734201822E-3,3.588830587E-3,-7.406735327E-3
5.594546060E1,-9.010255337E-3,-9.926552884E-4,9.010255337E-3
5.599355883E1,-1.084284950E-2,-1.076649129E-2,-4.657844082E-3
5.604165706E1,-5.115992390E-3,1.450803829E-3,-4.428769462E-3
5.608975529E1,-1.298087649E-2,-1.779143699E-2,-4.810560029E-3
5.613785352E1,-6.108647794E-4,6.795870606E-3,-1.710421406E-2
5.618595175E1,-1.229365356E-2,-2.199113183E-2,5.574141163E-3
5.623404998E1,5.497782957E-3,-4.581485875E-3,-3.436114406E-3
5.628214821E1,-1.000291109E-2,3.054323897E-4,1.679878123E-2
5.633024644E1,-1.023198478E-2,-4.810560029E-3,6.490438245E-3
5.637834467E1,-1.679878100E-3,-9.162971983E-4,1.229365356E-2
5.642644290E1,-1.030834299E-2,-1.817322709E-2,-3.436114406E-3
5.647454113E1,3.581194952E-2,-7.101302966E-3,-1.824958436E-2
5.652263936E1,-1.527161949E-4,-2.863428742E-2,1.015562657E-2
5.657073758E1,-1.435532235E-2,2.084576152E-2,1.298087649E-2
5.661883581E1,-5.650499370E-3,2.290742996E-4,7.330377586E-3
5.666693404E1,1.771507785E-2,-3.344484791E-2,1.718057133E-2
5.671503227E1,7.712167688E-3,-2.313650399E-2,1.382081583E-2
5.676313050E1,-3.207040206E-2,2.725984156E-2,9.544761851E-3
5.681122873E1,-1.992946304E-2,1.061377581E-2,6.490438245E-3
5.685932696E1,-5.955931731E-3,-4.963276442E-3,-1.527161920E-3
5.690742519E1,1.237001177E-2,1.458439697E-2,-3.359756200E-3
5.695552342E1,-1.320995111E-2,1.985310577E-3,2.519817324E-3
5.700362165E1,-1.542433538E-2,2.290742996E-4,-2.138026757E-3
5.705171988E1,-5.345066893E-4,-1.626427472E-2,-1.259908639E-2
5.709981811E1,-3.054323897E-4,-9.468403645E-3,-2.405280061E-2
5.714791623E1,4.046979360E-3,1.756236190E-3,-3.474293277E-2
5.719601446E1,1.908952487E-3,-6.032289471E-3,-2.527453005E-2
5.724411269E1,6.032289471E-3,-1.511890348E-2,1.832594397E-3
5.729221092E1,-1.924224012E-2,1.229365356E-2,1.832594397E-3
5.734030915E1,-1.359174121E-2,1.786779426E-2,9.544761851E-3
5.738840738E1,-7.712167688E-3,-1.634063199E-2,2.596175298E-3
5.743650560E1,3.252854943E-2,2.283107117E-2,-4.505127668E-3
5.748460383E1,-1.908952487E-3,4.123337101E-3,1.504254527E-2
5.753270206E1,2.000582218E-2,4.123337101E-3,4.222602770E-2
5.758080019E1,-3.008509055E-2,1.076649129E-2,5.902481079E-2
5.762889842E1,-1.702785492E-2,-7.712167688E-3,2.603811212E-2
5.767699665E1,4.024071619E-2,-5.726857111E-3,1.832594397E-3
5.772509488E1,-1.221729559E-3,-7.024944760E-3,4.046979360E-3
5.777319311E1,-1.702785492E-2,-7.330377586E-3,-2.061668551E-3
5.782129133E1,-1.534797717E-2,2.962694131E-2,-9.086613543E-3
5.786938946E1,-2.871064469E-2,1.756236190E-3,-5.879573524E-3
5.791748769E1,2.672533318E-2,5.879573524E-3,-2.054032870E-2
5.796558592E1,2.023489587E-2,-1.473711245E-2,-6.108647794E-4
5.801368415E1,9.162971983E-4,4.276053514E-3,1.137735695E-2
5.806178227E1,-1.855501719E-2,8.170315996E-3,1.298087649E-2
5.810988050E1,-7.788525894E-3,-1.069013402E-2,1.603520103E-2
5.815797873E1,1.679878100E-3,4.505127668E-3,-1.450803829E-3
5.820607696E1,3.558287397E-2,-1.382081583E-2,-1.641699113E-2
5.825417519E1,-9.773836471E-3,-1.748600416E-2,8.704823442E-3
5.830227331E1,-3.283398226E-2,1.893680729E-2,1.198822167E-2
5.835037154E1,-2.183841541E-2,6.032289471E-3,6.185005885E-3
5.839846977E1,3.283398226E-2,-8.475748822E-3,-1.061377581E-2
5.844656790E1,-1.030834299E-2,-1.435532235E-2,-1.153007243E-2
5.849466613E1,-1.450803829E-3,5.681042373E-2,-2.588539571E-2
5.854276436E1,2.489273995E-2,1.282816008E-2,8.552107029E-3
5.859086258E1,4.321868345E-2,-2.649625950E-2,3.214675933E-2
5.863896071E1,6.261364091E-3,4.581485875E-3,5.864302069E-2
5.868705894E1,-4.169152305E-2,3.359756200E-3,5.703949928E-2
5.873515717E1,3.741546767E-3,1.886045001E-2,1.168278884E-2
5.878325529E1,1.634063199E-2,-1.572976820E-2,-1.122464053E-2
5.883135352E1,1.817322709E-2,1.519526169E-2,-1.000291109E-2
5.887945175E1,-1.374445762E-2,1.061377581E-2,-5.192350596E-3
5.892754988E1,1.985310577E-3,8.781181648E-3,6.185005885E-3
5.897564811E1,-3.359756200E-3,9.086613543E-3,6.872228812E-3
5.902374623E1,-4.123337101E-3,2.924515121E-2,5.803215317E-3
5.907184446E1,-1.145371469E-3,1.550069358E-2,-4.963276442E-3
5.911994269E1,-1.061377581E-2,-1.091920771E-2,3.970621154E-3
5.916804081E1,2.000582218E-2,2.840521187E-2,-6.414080039E-3
5.921613904E1,-1.107192412E-2,2.519817324E-3,9.239329956E-3
5.926423727E1,-1.618791744E-2,6.490438245E-3,5.115992390E-3
5.931233540E1,-3.955349326E-2,-8.628465235E-3,5.879573524E-3
5.936043363E1,-2.458730713E-2,-2.977965865E-3,-8.475748822E-3
5.940853175E1,1.305723470E-2,1.435532235E-2,-2.886336111E-2
5.945662998E1,-5.345067009E-3,-9.544761851E-3,-1.985310577E-3
5.950472821E1,-1.786779426E-2,-8.399390616E-3,1.076649129E-2
5.955282633E1,-2.672533318E-2,3.138317913E-2,6.490438245E-3
5.960092456E1,-1.481347065E-2,3.917170316E-2,6.872228812E-3
5.964902269E1,-5.421424750E-3,1.290451828E-2,2.901607659E-3
5.969712092E1,2.718348242E-2,1.886045001E-2,1.023198478E-2
5.974521904E1,-9.621120058E-3,-1.351538301E-2,2.000582218E-2
5.979331727E1,1.985310577E-3,-2.985601686E-2,6.414080039E-3
5.984141540E1,2.932151034E-2,8.475748822E-3,-1.924224012E-2
5.988951363E1,-7.635809598E-4,2.993237413E-2,-1.153007243E-2
5.993761175E1,-3.817904741E-2,-6.062832847E-2,3.336848691E-2
5.998570998E1,-1.145371469E-3,-5.902481079E-2,-1.931859925E-2
6.003380811E1,3.611737862E-2,7.047852129E-2,-4.130972922E-2
6.008190633E1,-7.864884287E-2,-4.199695215E-2,1.687514037E-2
6.013000446E1,2.756527252E-2,5.955931731E-3,-2.557996288E-2
6.017810269E1,3.283398226E-2,9.926552884E-3,-2.222020552E-2
6.022620081E1,-2.435823344E-2,1.145371469E-3,-9.697478265E-3
6.027429904E1,2.031125315E-2,2.290742844E-2,8.323032409E-3
6.032239717E1,-1.527161949E-4,-9.010255337E-3,9.162971983E-4
6.037049540E1,2.603811212E-2,1.252272818E-2,9.926552884E-4
6.041859352E1,6.566796452E-3,-1.786779426E-2,3.283398226E-3
6.046669165E1,1.794415340E-2,-1.756236190E-3,1.259908639E-2
6.051478988E1,2.214384731E-3,-1.084284950E-2,2.199113183E-2
6.056288800E1,3.817904973E-3,7.788525894E-3,3.436114406E-3
6.061098613E1,-2.825249685E-3,-5.192350596E-3,-4.505127668E-3
6.065908436E1,1.206457894E-2,1.061377581E-2,-2.069304511E-2
6.070718248E1,-9.162971983E-4,3.054323897E-4,-1.748600416E-2
6.075528060E1,1.901316643E-2,2.260199748E-2,-1.916588284E-2
6.080337883E1,7.177661173E-3,-3.970621154E-3,6.490438245E-3
6.085147696E1,1.343902480E-2,-6.261364091E-3,5.192350596E-3
6.089957508E1,1.977674663E-2,1.122464053E-2,1.863137633E-2
6.094767331E1,-3.130681813E-2,-2.336557768E-2,3.420842811E-2
6.099577144E1,-1.450803876E-2,7.635809947E-3,3.817904799E-4
6.104386956E1,-2.748891478E-3,-2.214384731E-3,-3.031416424E-2
6.109196769E1,2.023489587E-2,6.414080039E-3,-4.360047355E-2
6.114006592E1,1.175914705E-2,-6.185005885E-3,-8.323032409E-3
6.118816404E1,1.985310577E-3,-6.643154658E-3,1.542433538E-2
6.123626217E1,1.259908639E-2,2.519817324E-3,1.611155830E-2
6.128436029E1,-5.955931731E-3,-9.926552884E-3,1.420260593E-2
6.133245852E1,2.138026757E-3,8.399390499E-4,6.414080039E-3
6.138055665E1,3.512472380E-3,1.145371469E-3,-1.450803829E-3
6.142865477E1,-1.107192412E-2,-7.635809743E-5,-1.886045001E-2
6.147675290E1,3.436114406E-3,1.153007243E-2,-7.024944760E-3
6.152485102E1,-8.475748822E-3,-1.114828233E-2,-1.527161920E-3
6.157294915E1,1.656970754E-2,-1.046105940E-2,-2.214384731E-3
6.162104738E1,6.872228812E-3,-3.436114406E-3,9.162971750E-3
6.166914550E1,-2.489273995E-2,9.239329956E-3,1.298087649E-3
6.171724363E1,4.810560029E-3,7.024944760E-3,1.183550525E-2
6.176534175E1,1.580612548E-2,-2.565632015E-2,-8.781181648E-3
6.181343988E1,1.084284950E-2,1.275180187E-2,-5.955931731E-3
6.186153800E1,-3.466657549E-2,-4.963276442E-3,3.588830587E-3
6.190963613E1,-2.901607659E-3,3.512472380E-3,-5.039634649E-3
6.195773425E1,4.734201822E-3,-8.323032409E-3,-2.901607659E-3
6.200583238E1,-7.483093534E-3,1.985310577E-3,-1.382081583E-2
6.205393061E1,-6.719512399E-3,1.397353224E-2,-1.725693047E-2
6.210202873E1,-1.206457894E-2,-9.315688163E-3,7.406735327E-3
6.215012686E1,5.803215317E-3,-2.519817324E-3,-7.788525894E-3
6.219822498E1,2.290742937E-3,-4.581485991E-4,-5.345066893E-4
6.224632310E1,-1.939495653E-2,-8.933897130E-3,5.345067009E-3
6.229442123E1,-5.421424750E-3,-1.298087649E-3,9.086613543E-3
6.234251936E1,-4.428769462E-3,-7.330377586E-3,-1.114828233E-2
6.239061748E1,-6.719512399E-3,6.719512399E-3,-8.475748822E-3
6.243871561E1,-1.023198478E-2,-1.595884189E-2,3.436114406E-3
6.248681373E1,1.740964688E-2,-1.679878100E-3,-6.643154658E-3
6.253491186E1,2.901607659E-3,-9.162971983E-4,1.382081583E-2
6.258300998E1,-5.574141163E-3,-1.458439697E-2,1.886045001E-2
6.263110810E1,8.399390499E-4,5.497782957E-3,3.588830587E-3
6.267920623E1,-1.725693047E-2,-6.108647794E-4,3.359756200E-3
6.272730425E1,9.010255337E-3,4.199695308E-3,-1.168278884E-2
6.277540238E1,5.345067009E-3,-4.657844082E-3,-8.781181648E-3
6.282350050E1,-7.177661173E-3,2.290742937E-3,-1.985310577E-3
6.287159863E1,-4.123337101E-3,2.290742996E-4,-1.221729559E-3
6.291969675E1,-9.926552884E-3,-1.382081583E-2,8.246674202E-3
6.296779488E1,4.123337101E-3,5.650499370E-3,1.374445739E-3
6.301589300E1,-1.985310577E-3,1.153007243E-2,-3.283398226E-3
6.306399113E1,2.825249685E-3,2.138026757E-3,-2.443459118E-3
6.311208925E1,1.206457894E-2,-1.748600416E-2,1.908952487E-3
6.316018727E1,2.000582218E-2,4.199695308E-3,3.817904799E-4
6.320828540E1,-9.315688163E-3,9.621120058E-3,3.665188793E-3
6.325638352E1,3.436114406E-3,9.086613543E-3,1.007926930E-2
6.330448165E1,6.108647678E-3,-1.550069358E-2,1.076649129E-2
6.335257977E1,9.621120058E-3,2.290742937E-3,8.399390499E-4
6.340067790E1,-5.803215317E-3,-6.872228696E-4,1.221729559E-3
6.344877592E1,-5.497782957E-3,-7.254019380E-3,5.497782957E-3
6.349687404E1,2.214384731E-3,-7.941242307E-3,-3.130682046E-3
6.354497217E1,1.130099874E-2,1.542433538E-2,-5.192350596E-3
6.359307029E1,-4.581485991E-4,-1.007926930E-2,-1.908952487E-3
6.364116842E1,1.656970754E-2,2.061668551E-3,2.519817324E-3
6.368926644E1,1.679878100E-3,-2.519817324E-3,-1.091920771E-2
6.373736456E1,4.276053514E-3,1.466075517E-2,-2.901607659E-3
6.378546269E1,-5.726857111E-3,1.908952487E-3,-1.206457894E-2
6.383356071E1,9.621120058E-3,-6.872228696E-4,6.872228696E-4
6.388165883E1,5.345067009E-3,-1.069013402E-2,-3.741546767E-3
6.392975696E1,1.175914705E-2,4.505127668E-3,1.450803829E-3
6.397785508E1,-1.160643063E-2,-2.023489587E-2,1.374445762E-2
6.402595310E1,1.076649129E-2,2.214384731E-3,8.933897130E-3
6.407405123E1,-9.621120058E-3,7.559451740E-3,-1.145371469E-3
6.412214936E1,1.069013379E-3,-1.908952487E-3,-4.963276442E-3
6.417024738E1,1.740964688E-2,8.170315996E-3,-1.069013402E-2
6.421834550E1,-9.162971750E-3,1.153007243E-2,2.519817324E-3
6.426644363E1,2.061668551E-3,0.000000000E0,3.130682046E-3
6.431454165E1,2.901607659E-3,-1.168278884E-2,3.283398226E-3
6.436263977E1,-1.320995111E-2,6.872228696E-4,-3.588830587E-3
6.441073779E1,-2.596175298E-3,2.718348242E-2,-1.244636998E-2
6.445883592E1,-4.428769462E-3,-3.115410358E-2,1.145371469E-3
6.450693404E1,2.397644334E-2,-1.137735695E-2,-3.054323897E-4
6.455503206E1,-1.351538301E-2,1.244636998E-2,-2.061668551E-3
6.460313019E1,-6.566796452E-3,1.267544460E-2,1.023198478E-2
6.465122821E1,1.298087649E-2,-1.481347065E-2,6.490438245E-3
6.469932633E1,9.468403645E-3,-7.101302966E-3,9.010255337E-3
6.474742436E1,-1.679878100E-3,4.505127668E-3,1.298087649E-3
6.479552248E1,-1.473711245E-2,2.290742996E-4,-3.588830587E-3
6.484362050E1,4.963276442E-3,1.756236190E-3,-7.635809743E-5
6.489171863E1,1.985310577E-3,-1.076649129E-2,-9.697478265E-3
6.493981665E1,3.207040019E-3,3.588830587E-3,1.298087649E-3
6.498791477E1,-3.130682046E-3,-5.955931731E-3,-7.406735327E-3
6.503601279E1,-3.817904973E-3,-1.137735695E-2,3.817904973E-3
6.508411092E1,6.108647794E-4,-4.046979360E-3,1.069013379E-3
6.513220894E1,-4.963276442E-3,-3.817904799E-4,3.512472380E-3
6.518030706E1,-5.726857111E-3,-7.101302966E-3,-8.170315996E-3
6.522840508E1,-4.352411721E-3,-7.864884101E-3,6.108647794E-4
6.527650321E1,1.298087649E-3,2.901607659E-3,-1.374445739E-3
6.532460123E1,-1.504254527E-2,3.817904799E-4,-4.810560029E-3
6.537269925E1,-1.527161920E-3,7.024944760E-3,9.162971983E-4
6.542079738E1,-7.330377586E-3,-2.054032870E-2,9.392046370E-3
6.546889540E1,9.162971983E-4,-2.214384731E-3,-6.566796452E-3
6.551699352E1,-1.175914705E-2,-3.283398226E-3,7.483093534E-3
6.556509154E1,-6.719512399E-3,-5.650499370E-3,1.069013379E-3
6.561318956E1,1.695149764E-2,-6.872228696E-4,7.024944760E-3
6.566128769E1,-6.261364091E-3,-1.947131567E-2,7.024944760E-3
6.570938571E1,5.192350596E-3,1.007926930E-2,7.330377586E-3
6.575748383E1,-1.481347065E-2,-9.010255337E-3,1.763872057E-2
6.580558186E1,-8.399390499E-4,-2.367100911E-3,1.603520010E-3
6.585367988E1,3.359756200E-3,6.566796452E-3,-8.552107029E-3
6.590177800E1,-1.496618707E-2,-2.290742937E-3,-6.032289471E-3
6.594987602E1,3.512472380E-3,1.091920771E-2,-1.786779426E-2
6.599797404E1,4.199695308E-3,2.672533505E-3,1.221729559E-3
6.604607217E1,1.351538301E-2,6.872228696E-4,4.963276442E-3
6.609417019E1,6.108647678E-3,5.726857111E-3,7.635809598E-4
6.614226821E1,-3.970621154E-3,1.061377581E-2,7.941242307E-3
6.619036623E1,5.345067009E-3,9.086613543E-3,4.963276442E-3
6.623846436E1,0.000000000E0,-1.847865991E-2,5.345067009E-3
6.628656238E1,1.320995111E-2,-1.908952487E-3,-7.024944760E-3
6.633466040E1,-1.237001177E-2,5.650499370E-3,-6.108647794E-4
6.638275842E1,-2.061668551E-3,3.359756200E-3,-8.628465235E-3
6.643085654E1,1.664606482E-2,-8.323032409E-3,6.643154658E-3
6.647895456E1,-7.101302966E-3,-8.933897130E-3,1.168278884E-2
6.652705258E1,-1.908952487E-3,1.870773360E-2,1.626427472E-2
6.657515060E1,-5.192350596E-3,6.566796452E-3,-1.221729559E-3
6.662324873E1,2.130390890E-2,-1.886045001E-2,-5.650499370E-3
6.667134675E1,1.069013402E-2,-4.505127668E-3,-1.427896414E-2
6.671944477E1,-2.160934173E-2,2.970330045E-2,-1.320995111E-2
6.676754279E1,-2.031125315E-2,-3.512472380E-3,7.101302966E-3
6.681564081E1,2.596175298E-2,-6.795870606E-3,-3.741546767E-3
6.686373894E1,7.406735327E-3,1.069013379E-3,-1.153007243E-2
6.691183696E1,-7.864884101E-3,5.115992390E-3,5.650499370E-3
6.695993498E1,-1.015562657E-2,-3.741546767E-3,-3.588830587E-3
6.700803300E1,8.323032409E-3,-3.130682046E-3,-2.214384731E-3
6.705613102E1,8.781181648E-3,-1.290451828E-2,-6.643154658E-3
6.710422915E1,5.039634649E-3,1.229365356E-2,6.185005885E-3
6.715232717E1,-2.641990222E-2,-1.794415340E-2,2.328922041E-2
6.720042519E1,3.207040019E-3,-1.221729536E-2,4.886918236E-3
6.724852321E1,-1.145371469E-3,1.298087649E-2,-1.427896414E-2
6.729662123E1,-1.206457894E-2,9.926552884E-3,-6.948587019E-3
6.734471936E1,1.374445739E-3,-2.160934173E-2,5.345067009E-3
6.739281738E1,1.252272818E-2,-2.519817324E-3,-9.315688163E-3
6.744091540E1,-8.552107029E-3,1.817322709E-2,-1.191186346E-2
6.748901342E1,-1.618791744E-2,-1.091920771E-2,2.825249685E-3
6.753711144E1,2.328922041E-2,-2.290742996E-4,-4.963276442E-3
6.758520956E1,-1.374445739E-3,7.483093534E-3,4.886918236E-3
6.763330758E1,-8.933897130E-3,7.406735327E-3,3.665188793E-3
6.768140561E1,-1.145371469E-3,-2.748891478E-3,4.963276442E-3
6.772950363E1,-9.010255337E-3,-1.168278884E-2,2.290742937E-3
6.777760175E1,6.566796452E-3,6.337722298E-3,-1.298087649E-2
6.782569977E1,3.207040019E-3,6.414080039E-3,-1.488982886E-2
6.787379779E1,-5.039634649E-3,-7.788525894E-3,1.275180187E-2
6.792189592E1,1.634063199E-2,-1.069013402E-2,1.443168055E-2
6.796999394E1,-1.985310577E-3,-1.343902480E-2,1.374445762E-2
6.801809196E1,-2.122755162E-2,7.788525894E-3,4.657844082E-3
6.806619008E1,-5.803215317E-3,1.275180187E-2,-1.366809942E-2
6.811428810E1,1.389717404E-2,-2.046396956E-2,-1.046105940E-2
6.816238623E1,1.908952370E-2,-5.574141163E-3,-8.552107029E-3
6.821048425E1,-1.023198478E-2,2.138026757E-3,4.963276442E-3
6.825858227E1,-1.168278884E-2,1.114828233E-2,1.053741761E-2
6.830668040E1,-6.032289471E-3,-1.046105940E-2,3.665188793E-3
6.835477842E1,1.679878123E-2,9.544761851E-3,-5.115992390E-3
6.840287654E1,-1.359174121E-2,1.214093715E-2,-1.466075517E-2
6.845097456E1,8.093958721E-3,8.170315996E-3,-1.313359290E-2
6.849907269E1,1.382081583E-2,-1.435532235E-2,-3.359756200E-3
6.854717071E1,-2.901607659E-3,5.115992390E-3,2.214384731E-3
6.859526883E1,-1.206457894E-2,2.061668551E-3,2.672533505E-3
6.864336686E1,7.635809598E-4,-5.955931731E-3,-5.726857111E-3
6.869146498E1,6.108647678E-3,-2.519817324E-3,1.679878100E-3
6.873956300E1,5.650499370E-3,-1.122464053E-2,-3.054323839E-3
6.878766113E1,1.175914705E-2,-3.207040019E-3,1.229365356E-2
6.883575915E1,-3.023780696E-2,-9.926552884E-4,1.359174121E-2
6.888385727E1,-2.214384731E-3,1.557705179E-2,4.123337101E-3
6.893195529E1,5.650499370E-3,-1.618791744E-2,-8.704823442E-3
6.898005342E1,1.725693047E-2,-1.221729559E-3,-1.259908639E-2
6.902815154E1,-1.145371422E-2,2.290742937E-3,-1.603520010E-3
6.907624956E1,2.519817324E-3,5.115992390E-3,-5.345066893E-4
6.912434769E1,-6.719512399E-3,-1.206457894E-2,3.130682046E-3
6.917244571E1,1.832594397E-3,7.177661173E-3,-6.337722298E-3
6.922054383E1,-5.268708803E-3,1.458439697E-2,4.352411721E-3
6.926864196E1,2.443459118E-3,-1.824958436E-2,4.657844082E-3
6.931673998E1,3.039052337E-2,-1.038470119E-2,-1.527161949E-4
6.936483810E1,-1.137735695E-2,-2.519817324E-3,5.574141163E-3
6.941293623E1,-6.566796452E-3,1.572976820E-2,6.108647794E-4
6.946103425E1,-2.214384731E-3,-4.046979360E-3,-2.596175298E-3
6.950913238E1,5.879573524E-3,-3.817904799E-4,-5.574141163E-3
6.955723050E1,-7.635809598E-4,-1.320995111E-2,5.879573524E-3
6.960532852E1,5.115992390E-3,4.505127668E-3,-1.305723470E-2
6.965342665E1,-1.634063199E-2,-6.032289471E-3,3.054323839E-3
6.970152477E1,-2.138026757E-3,2.138026757E-3,-1.145371422E-2
6.974962279E1,3.817904973E-3,5.650499370E-3,-2.825249685E-3
6.979772092E1,7.635809743E-5,-5.192350596E-3,-4.581485991E-4
6.984581904E1,5.421424750E-3,5.726857111E-3,4.963276442E-3
6.989391717E1,-1.298087649E-2,-2.519817324E-3,1.527161949E-4
6.994201519E1,-6.872228696E-4,5.345066893E-4,-2.290742996E-4
6.999011331E1,-1.947131567E-2,-1.840230078E-2,-1.000291109E-2
7.003821144E1,1.458439697E-2,1.954767294E-2,-1.878409274E-2
7.008630946E1,-9.315688163E-3,1.756236190E-3,-8.475748822E-3
7.013440758E1,-3.512472380E-3,5.115992390E-3,4.199695308E-3
7.018250571E1,4.886918236E-3,-1.595884189E-2,1.473711245E-2
7.023060373E1,9.239329956E-3,-2.214384731E-3,4.046979360E-3
7.027871008E1,-4.428769462E-3,1.420260593E-2,-2.061668551E-3
7.032679998E1,-2.878700197E-2,5.345067009E-3,-7.559451740E-3
7.037489810E1,1.229365356E-2,-4.505127668E-3,-5.803215317E-3
7.042299613E1,8.933897130E-3,-2.000582218E-2,-7.941242307E-3
7.047109425E1,-3.054323839E-3,1.809686981E-2,-3.817904973E-3
7.051919238E1,-2.977965772E-2,-4.123337101E-3,2.145662531E-2
7.056729040E1,1.237001177E-2,2.367100911E-3,9.392046370E-3
7.061538852E1,5.345066893E-4,-4.352411721E-3,2.596175298E-3
7.066348665E1,1.374445739E-3,-1.069013379E-3,-4.581485875E-3
7.071158467E1,1.756236190E-3,1.908952487E-3,-1.053741761E-2
7.075968279E1,-1.206457894E-2,2.061668551E-3,-7.941242307E-3
7.080778092E1,8.704823442E-3,1.145371469E-3,-1.695149764E-2
7.085587904E1,3.596466407E-2,8.399390499E-4,-6.261364091E-3
7.090397706E1,2.580903657E-2,-1.298087649E-3,2.382372692E-2
7.095207519E1,-2.901607659E-3,6.108647794E-4,3.604102135E-2
7.100017331E1,-1.572976820E-2,-5.421424750E-3,4.955640435E-2
7.104827133E1,-2.191477455E-2,-2.825249685E-3,1.137735695E-2
7.109636946E1,-1.664606482E-2,1.947131567E-2,-2.809977904E-2
7.114446758E1,6.490438245E-3,-4.657844082E-3,-4.566214234E-2
7.119256560E1,3.985892609E-2,-1.427896414E-2,-2.802342176E-2
7.124066373E1,4.963276442E-3,-1.450803829E-3,9.315688163E-3
7.128876186E1,-2.489273995E-2,6.337722298E-3,4.589121789E-2
7.133685988E1,-1.779143699E-2,-4.046979360E-3,4.451677203E-2
7.138495800E1,-3.588830587E-3,-4.046979360E-3,-7.635809598E-4
7.143305613E1,1.046105940E-2,-3.130682046E-3,-2.405280061E-2
7.148115415E1,1.351538301E-2,6.872228696E-4,-3.291033953E-2
7.152925227E1,1.053741761E-2,3.207040019E-3,-2.099847607E-2
7.157735029E1,3.512472380E-3,-2.825249685E-3,1.053741761E-2
7.162544842E1,-8.552107029E-3,-5.650499370E-3,1.557705179E-2
7.167354654E1,-1.298087649E-3,1.794415340E-2,1.595884189E-2
7.172164456E1,6.185005885E-3,-1.626427472E-2,8.399390616E-3
7.176974269E1,3.039052337E-2,2.596175298E-3,-1.893680729E-2
7.181784081E1,-1.603520010E-3,-7.024944760E-3,-1.298087649E-3
7.186593883E1,-9.926552884E-4,1.488982886E-2,-1.122464053E-2
7.191403696E1,-4.046979360E-3,3.054323839E-3,-1.527161949E-4
7.196213498E1,4.428769462E-3,-1.504254527E-2,6.795870606E-3
7.201023310E1,1.206457894E-2,6.948587019E-3,2.977965865E-3
7.205833113E1,-8.170315996E-3,-1.053741761E-2,6.719512399E-3
7.210642925E1,8.093958721E-3,-1.527161920E-3,2.901607659E-3
7.215452738E1,-1.939495653E-2,1.756236190E-3,-1.221729559E-3
7.220262540E1,-8.323032409E-3,1.206457894E-2,-6.032289471E-3
7.225072352E1,6.490438245E-3,-2.901607659E-3,-8.399390616E-3
7.229882154E1,1.168278884E-2,-7.864884101E-3,-2.825249685E-3
7.234691967E1,-7.483093534E-3,-3.436114406E-3,2.138026757E-3
7.239501769E1,-4.123337101E-3,1.740964688E-2,6.872228696E-4
7.244311581E1,-2.061668597E-2,-5.650499370E-3,-1.145371469E-3
7.249121383E1,-5.955931731E-3,-8.704823442E-3,-1.061377581E-2
7.253931196E1,2.306014486E-2,7.330377586E-3,-2.244928107E-2
7.258740998E1,-1.756236190E-3,8.475748822E-3,-1.542433538E-2
7.263550810E1,-2.596175298E-3,3.817904799E-4,1.275180187E-2
7.268360613E1,1.114828233E-2,-1.305723470E-2,1.954767294E-2
7.273170425E1,2.596175298E-3,1.527161949E-4,2.878700197E-2
7.277980227E1,-2.008217946E-2,-4.581485875E-3,5.039634649E-3
7.282790040E1,2.214384731E-3,7.330377586E-3,-1.611155830E-2
7.287599842E1,-1.374445739E-3,5.345066893E-4,-1.878409274E-2
7.292409654E1,1.466075517E-2,-9.010255337E-3,-4.428769462E-3
7.297219456E1,6.261364091E-3,-8.017600514E-3,9.544761851E-3
7.302029269E1,-1.145371422E-2,2.443459118E-3,1.145371422E-2
7.306839071E1,-7.635809598E-4,3.359756200E-3,9.086613543E-3
7.311648883E1,1.023198478E-2,-1.473711245E-2,2.519817324E-3
7.316458686E1,1.481347065E-2,3.512472380E-3,-1.542433538E-2
7.321268498E1,-6.566796452E-3,1.336266659E-2,-1.099556591E-2
7.326078300E1,-6.108647794E-4,-9.926552884E-4,-8.323032409E-3
7.330888102E1,1.122464053E-2,-9.850194678E-3,2.977965865E-3
7.335697915E1,-9.773836471E-3,6.185005885E-3,-3.283398226E-3
7.340507717E1,-1.145371422E-2,3.970621154E-3,1.443168055E-2
7.345317529E1,4.886918236E-3,-2.519817324E-3,-6.948587019E-3
7.350127331E1,1.664606482E-2,3.588830587E-3,-1.122464053E-2
7.354937133E1,-9.392046370E-3,-8.781181648E-3,8.399390499E-4
7.359746946E1,-2.596175298E-3,1.313359290E-2,-3.283398226E-3
7.364556748E1,-1.832594350E-2,1.069013402E-2,-5.574141163E-3
7.369366550E1,-1.985310577E-3,-5.955931731E-3,1.191186346E-2
7.374176363E1,1.634063199E-2,-1.794415340E-2,-9.926552884E-4
7.378986165E1,3.665188793E-3,1.122464053E-2,-9.392046370E-3
7.383795977E1,-2.580903657E-2,1.206457894E-2,9.621120058E-3
7.388605779E1,-2.214384731E-3,-5.574141163E-3,3.741546767E-3
7.393415581E1,1.244636998E-2,2.061668551E-3,-1.259908639E-2
7.398225394E1,5.497782957E-3,3.436114406E-3,-1.145371469E-3
7.403035196E1,-3.436114406E-3,-2.061668551E-3,7.635809598E-4
7.407844998E1,-6.566796452E-3,9.162971750E-3,3.588830587E-3
7.412654810E1,-5.345067009E-3,-5.955931731E-3,9.850194678E-3
7.417464613E1,9.392046370E-3,-2.672533505E-3,-1.221729559E-3
7.422274415E1,-1.679878100E-3,1.298087649E-3,-1.145371469E-3
7.427084217E1,-1.069013402E-2,-1.504254527E-2,-2.977965865E-3
7.431894029E1,2.542724647E-2,3.970621154E-3,-8.399390499E-4
7.436703831E1,-8.093958721E-3,-4.734201822E-3,8.933897130E-3
7.441513633E1,-2.290742937E-3,1.420260593E-2,-1.756236190E-3
7.446323446E1,2.214384731E-3,-1.595884189E-2,6.719512399E-3
7.451133248E1,1.832594350E-2,-5.345066893E-4,-3.817904973E-3
7.455943050E1,-1.084284950E-2,9.621120058E-3,-1.992946304E-2
7.460752852E1,-1.091920771E-2,7.559451740E-3,-2.290742937E-3
7.465562665E1,1.030834299E-2,-1.343902480E-2,-5.421424750E-3
7.470372467E1,2.466366626E-2,-8.399390616E-3,-3.894262947E-3
7.475182269E1,-1.023198478E-2,3.054323897E-4,1.229365356E-2
7.479992071E1,-1.603520103E-2,-6.185005885E-3,1.435532235E-2
7.484801883E1,5.421424750E-3,1.053741761E-2,-3.970621154E-3
7.489611686E1,3.817904973E-3,-1.053741761E-2,-1.450803829E-3
7.494421488E1,1.786779426E-2,1.069013379E-3,-9.850194678E-3
7.499231290E1,-8.857538924E-3,8.399390499E-4,-8.399390499E-4
7.504041092E1,-8.093958721E-3,1.053741761E-2,3.817904799E-4
7.508850904E1,1.985310577E-3,2.748891478E-3,4.199695308E-3
7.513660706E1,1.145371469E-3,-1.656970754E-2,-5.345066893E-4
7.518470508E1,-7.254019380E-3,6.185005885E-3,-9.392046370E-3
7.523280310E1,-2.214384731E-3,1.000291109E-2,-2.901607659E-3
7.528090123E1,3.283398226E-3,-1.481347065E-2,-4.734201822E-3
7.532899925E1,1.832594350E-2,1.756236190E-3,-5.726857111E-3
7.537709727E1,-3.054323839E-3,5.650499370E-3,1.000291109E-2
7.542519529E1,-6.108647678E-3,-1.450803829E-3,2.214384824E-2
7.547329331E1,-8.399390499E-4,-3.817904973E-3,3.207040019E-3
7.552139133E1,-9.544761851E-3,6.643154658E-3,-1.443168055E-2
7.556948936E1,-1.298087649E-2,1.015562657E-2,-1.153007243E-2
7.561758748E1,2.901607659E-3,-1.000291109E-2,-9.926552884E-3
7.566568550E1,1.878409274E-2,-2.519817324E-3,-3.283398226E-3
7.571378352E1,-1.053741761E-2,-9.239329956E-3,2.023489587E-2
7.576188154E1,-9.392046370E-3,8.093958721E-3,7.864884101E-3
7.580997956E1,7.941242307E-3,-1.145371422E-2,5.268708803E-3
7.585807758E1,2.031125315E-2,-4.581485991E-4,-2.176205814E-2
7.590617560E1,-2.229656465E-2,1.886045001E-2,-1.641699113E-2
7.595427363E1,-4.734201822E-3,5.726857111E-3,-2.443459118E-3
7.600237165E1,2.405280061E-2,-2.351829410E-2,-1.832594397E-3
7.605046977E1,-5.039634649E-3,-7.635809743E-5,-4.199695308E-3
7.609856779E1,-1.725693047E-2,2.557996288E-2,1.427896414E-2
7.614666581E1,-5.192350596E-3,-1.114828233E-2,5.879573524E-3
7.619476383E1,3.497200832E-2,6.643154658E-3,-1.702785492E-2
7.624286186E1,-1.153007243E-2,-1.038470119E-2,-2.977965865E-3
7.629095988E1,2.290742996E-4,1.145371422E-2,5.268708803E-3
7.633905790E1,-1.198822167E-2,-5.650499370E-3,-3.894262947E-3
7.638715592E1,5.268708803E-3,6.108647794E-4,2.519817324E-3
7.643525394E1,3.359756200E-3,-6.795870606E-3,1.298087649E-2
7.648335196E1,-4.123337101E-3,-4.734201822E-3,-1.908952487E-3
7.653144998E1,-2.290742937E-3,8.017600514E-3,2.290742996E-4
7.657954800E1,-8.933897130E-3,-8.628465235E-3,-2.977965865E-3
7.662764602E1,1.886045001E-2,3.894262947E-3,-2.290742996E-4
7.667574404E1,7.635809598E-4,-1.366809942E-2,-6.032289471E-3
7.672384206E1,1.214093715E-2,1.779143699E-2,5.955931731E-3
7.677194008E1,-2.260199748E-2,-4.581485875E-3,1.069013379E-3
7.682003811E1,1.572976820E-2,8.093958721E-3,-4.352411721E-3
7.686813613E1,-1.527161949E-4,-1.748600416E-2,-5.421424750E-3
7.691623415E1,8.704823442E-3,9.468403645E-3,-9.468403645E-3
7.696433217E1,-1.214093715E-2,1.534797717E-2,6.643154658E-3
7.701243019E1,-6.261364091E-3,1.450803829E-3,4.963276442E-3
7.706052821E1,2.435823344E-2,-4.963276442E-3,1.679878100E-3
7.710862623E1,8.323032409E-3,-5.497782957E-3,-8.475748822E-3
7.715672415E1,-7.635809598E-4,1.458439697E-2,-3.436114406E-3
7.720482217E1,5.345066893E-4,3.665188793E-3,-1.366809942E-2
7.725292019E1,2.519817324E-3,-1.168278884E-2,-1.145371469E-3
7.730101821E1,3.054323897E-4,1.153007243E-2,-4.046979360E-3
7.734911623E1,2.901607659E-3,1.947131567E-2,-3.604102135E-2
7.739721425E1,5.016727000E-2,7.918334752E-2,-3.810269013E-2
7.744531227E1,-2.825249545E-2,-1.649334840E-2,3.054323897E-4
7.749341029E1,3.596466407E-2,7.177661173E-3,-3.130682046E-3
7.754150831E1,1.374445739E-3,-1.550069358E-2,3.871355578E-2
7.758960623E1,-4.298960790E-2,-1.038470119E-2,1.504254527E-2
7.763770425E1,1.404988952E-2,7.864884101E-3,3.588830587E-3
7.768580227E1,-1.267544460E-2,-1.756236330E-2,-1.977674663E-2
7.773390029E1,2.092211880E-2,8.017600514E-3,-1.076649129E-2
7.778199831E1,-1.420260593E-2,1.756236330E-2,-9.162971750E-3
7.783009623E1,1.832594397E-3,1.046105940E-2,7.635809743E-5
7.787819425E1,1.427896414E-2,-1.374445739E-3,-4.505127668E-3
7.792629227E1,1.450803876E-2,-1.298087649E-3,3.512472380E-3
7.797439029E1,-1.695149764E-2,2.290742937E-3,9.239329956E-3
7.802248831E1,-1.007926930E-2,2.970330045E-2,-8.781181648E-3
7.807058623E1,-1.580612548E-2,-1.298087649E-2,1.153007243E-2
7.811868425E1,1.702785492E-2,-6.108647794E-4,-1.756236190E-3
7.816678227E1,1.320995111E-2,7.483093534E-3,-7.941242307E-3
7.821488029E1,-9.162971983E-4,1.450803829E-3,1.473711245E-2
7.826297821E1,-1.084284950E-2,2.405280061E-2,4.428769462E-3
7.831107623E1,-1.695149764E-2,3.512472380E-3,8.857538924E-3
7.835917425E1,2.237292193E-2,9.697478265E-3,1.450803829E-3
7.840727227E1,1.786779426E-2,5.803215317E-3,-2.290742937E-3
7.845537019E1,1.488982886E-2,2.641990222E-2,1.840230078E-2
7.850346821E1,-7.024944760E-3,2.527453005E-2,7.483093534E-3
7.855156623E1,-2.764163166E-2,7.437278330E-2,-3.970621154E-3
7.859966415E1,-4.780016840E-2,4.352411721E-3,7.635809743E-5
7.864776217E1,1.343902480E-2,1.427896414E-2,-6.391172856E-2
7.869586019E1,2.664897591E-2,1.374445762E-2,-5.558869615E-2
7.874395821E1,-1.534797717E-2,-9.544761851E-3,-2.015853859E-2
7.879205613E1,-1.664606482E-2,2.290742937E-3,2.825249685E-3
7.884015415E1,6.032289471E-3,-1.145371422E-2,2.649625950E-2
7.888825217E1,6.108647678E-3,-3.794997558E-2,2.458730713E-2
7.893635008E1,2.069304511E-2,-1.870773360E-2,1.175914705E-2
7.898444810E1,1.252272818E-2,-3.161225095E-2,-9.850194678E-3
7.903254613E1,6.291907281E-2,3.207040206E-2,-4.024071619E-2
7.908064404E1,-1.550069358E-2,-3.726275265E-2,2.069304511E-2
7.912874206E1,-4.581485991E-4,5.650499370E-3,-3.130682046E-3
7.917683998E1,2.130390890E-2,3.749182448E-2,-1.252272818E-2
7.922493800E1,-2.138026757E-3,1.710421406E-2,-6.185005885E-3
7.927303602E1,2.367100911E-3,-1.534797717E-2,1.175914705E-2
7.932113394E1,1.756236190E-3,2.519817324E-3,-1.130099874E-2
7.936923196E1,-1.145371422E-2,-4.046979360E-3,-5.574141163E-3
7.941732988E1,1.114828233E-2,-8.399390499E-4,-1.733328775E-2
7.946542790E1,1.450803829E-3,-5.650499370E-3,-4.428769462E-3
7.951352592E1,-2.367100911E-3,5.345067009E-3,5.268708803E-3
7.956162383E1,6.108647794E-4,1.275180187E-2,7.635809947E-3
7.960972186E1,8.093958721E-3,-1.534797717E-2,2.542724647E-2
7.965781977E1,2.122755162E-2,-8.323032409E-3,1.206457894E-2
7.970591779E1,4.810560029E-3,7.559451740E-3,5.345067009E-3
7.975401571E1,-1.237001177E-2,7.254019380E-3,9.850194678E-3
7.980211373E1,-1.328630932E-2,9.850194678E-3,9.850194678E-3
7.985021165E1,3.512472380E-3,5.879573524E-3,1.962403022E-2
7.989830967E1,1.527161989E-2,-9.162971983E-4,3.436114406E-3
7.994640758E1,2.573267929E-2,1.130099874E-2,-2.244928107E-2
7.999450560E1,-1.641699113E-2,1.527161989E-2,1.435532235E-2
8.004260352E1,-2.023489587E-2,-1.878409274E-2,3.436114406E-3
8.009070154E1,5.238165334E-2,2.924515121E-2,-2.680169232E-2
8.013879946E1,-1.870773360E-2,-2.787070535E-2,1.748600416E-2
8.018689748E1,-8.170315996E-3,1.389717404E-2,-8.246674202E-3
8.023499540E1,1.450803829E-3,8.170315996E-3,1.221729559E-3
8.028309342E1,-6.414080039E-3,-3.329212964E-2,2.138026757E-3
8.033119133E1,2.237292193E-2,2.504545636E-2,-8.170315996E-3
8.037928936E1,-1.611155830E-2,-8.704823442E-3,1.466075517E-2
8.042738727E1,1.007926930E-2,7.559451740E-3,2.222020552E-2
8.047548529E1,-9.468403645E-3,-2.886336111E-2,2.672533318E-2
8.052358321E1,-8.857538924E-3,-1.840230078E-2,2.557996288E-2
8.057168113E1,-1.145371422E-2,-1.687514037E-2,-9.850194678E-3
8.061977915E1,-7.406735327E-3,2.367101051E-2,-4.894553870E-2
8.066787706E1,-2.748891478E-3,2.229656465E-2,-2.832885459E-2
8.071597508E1,1.122464053E-2,-4.665479809E-2,-8.628465235E-3
8.076407300E1,4.871646687E-2,-5.345066893E-4,-9.392046370E-3
8.081217092E1,-5.436696485E-2,-1.282816008E-2,2.718348242E-2
8.086026894E1,-2.565632015E-2,3.420842811E-2,3.741546767E-3
8.090836686E1,7.788525894E-3,3.191768378E-2,-5.726857111E-3
8.095646488E1,-1.145371469E-3,9.392046370E-3,-1.847865991E-2
8.100456279E1,2.733619884E-2,3.642281145E-2,-1.061377581E-2
8.105266071E1,-1.985310577E-3,1.763872057E-2,-1.275180187E-2
8.110075873E1,-8.323032409E-3,-2.619082667E-2,-1.908952487E-3
8.114885665E1,8.628465235E-3,-1.611155830E-2,-1.313359290E-2
8.119695456E1,6.872228812E-3,-1.992946304E-2,1.595884189E-2
8.124505258E1,-1.359174121E-2,-1.298087649E-3,1.527161920E-3
8.129315050E1,7.635809743E-5,4.428769462E-3,1.603520103E-2
8.134124842E1,-5.497782957E-3,-1.290451828E-2,8.246674202E-3
8.138934644E1,7.177661173E-3,1.840230078E-2,7.941242307E-3
8.143744436E1,-1.542433538E-2,1.863137633E-2,3.512472380E-3
8.148554227E1,-4.199695308E-3,2.054032870E-2,-1.458439697E-2
8.153364029E1,2.038761228E-2,3.039052337E-2,6.185005885E-3
8.158173821E1,-1.756236190E-3,7.559451740E-3,-1.305723470E-2
8.162983613E1,-7.177661173E-3,4.734201822E-3,1.343902480E-2
8.167793415E1,1.053741761E-2,-8.017600514E-3,-2.290742996E-4
8.172603206E1,1.420260593E-2,-9.239329956E-3,-1.908952487E-3
8.177412998E1,-2.443459118E-3,7.254019380E-3,7.101302966E-3
8.182222800E1,0.000000000E0,5.345066893E-4,6.490438245E-3
8.187032592E1,-2.519817324E-3,-8.399390499E-4,-5.345067009E-3
8.191842383E1,8.704823442E-3,1.374445762E-2,-2.290742996E-4
8.196652186E1,-1.756236330E-2,1.954767294E-2,-5.726857111E-3
8.201461977E1,7.483093534E-3,1.832594350E-2,2.214384824E-2
8.206271769E1,7.635809743E-5,9.773836471E-3,-8.017600514E-3
8.211081560E1,-3.130682046E-3,-3.436114406E-3,6.185005885E-3
8.215891363E1,9.162971983E-4,-9.468403645E-3,-9.086613543E-3
8.220701154E1,1.572976820E-2,-6.185005885E-3,-3.970621154E-3
8.225510946E1,3.588830587E-3,-1.168278884E-2,1.603520010E-3
8.230320738E1,-1.168278884E-2,1.771507785E-2,-1.664606482E-2
8.235130540E1,-1.756236190E-3,1.046105940E-2,1.259908639E-2
8.239940331E1,6.872228696E-4,-1.656970754E-2,-4.505127668E-3
8.244750123E1,1.794415340E-2,6.795870606E-3,-7.864884101E-3
8.249559915E1,-1.511890348E-2,-1.908952487E-3,3.436114406E-3
8.254369706E1,-6.490438245E-3,9.544761851E-3,6.108647794E-4
8.259179508E1,-1.229365356E-2,1.840230078E-2,-7.177661173E-3
8.263989300E1,-1.756236190E-3,-2.061668597E-2,9.621120058E-3
8.268799092E1,2.306014486E-2,-1.275180187E-2,-1.206457894E-2
8.273608883E1,3.817904799E-4,-2.748891478E-3,-4.199695308E-3
8.278418675E1,-2.122755162E-2,3.741546767E-3,6.185005885E-3
8.283228477E1,7.941242307E-3,6.337722298E-3,8.017600514E-3
8.288038269E1,1.061377581E-2,-9.468403645E-3,7.406735327E-3
8.292848060E1,8.475748822E-3,-1.237001177E-2,-9.392046370E-3
8.297657915E1,5.192350596E-3,-4.199695308E-3,6.108647794E-4
8.302467644E1,-1.886045001E-2,3.665188793E-3,-1.122464053E-2
8.307277436E1,7.635809743E-5,1.511890348E-2,5.345066893E-4
8.312087238E1,-6.872228696E-4,-2.298378758E-2,-7.635809743E-5
8.316897029E1,3.291033953E-2,2.138026757E-3,-1.756236190E-3
8.321706821E1,-8.170315996E-3,-8.399390616E-3,-1.527161949E-4
8.326516613E1,1.527161949E-4,4.199695308E-3,1.259908639E-2
8.331326404E1,-8.781181648E-3,6.948587019E-3,-1.061377581E-2
8.336136196E1,-1.214093715E-2,4.581485875E-3,4.276053514E-3
8.340945988E1,3.817904973E-3,-6.185005885E-3,-1.435532235E-2
8.345755790E1,1.206457894E-2,-3.054323897E-4,-3.512472380E-3
8.350565581E1,-8.628465235E-3,3.283398226E-3,-4.123337101E-3
8.355375373E1,-9.392046370E-3,1.832594350E-2,1.595884189E-2
8.360185165E1,-3.588830587E-3,6.108647794E-4,7.406735327E-3
8.364994956E1,6.261364091E-3,1.450803829E-3,-2.290742996E-4
8.369804748E1,-8.399390616E-3,-2.061668551E-3,-9.086613543E-3
8.374614540E1,-9.162971983E-4,-2.443459118E-3,-8.781181648E-3
8.379424331E1,-1.527161920E-3,-1.114828233E-2,-1.023198478E-2
8.384234123E1,9.926552884E-3,1.007926930E-2,-8.475748822E-3
8.389043925E1,-1.069013379E-3,9.392046370E-3,4.505127668E-3
8.393853717E1,-6.719512399E-3,2.977965865E-3,6.719512399E-3
8.398663508E1,4.657844082E-3,-7.635809743E-5,7.941242307E-3
8.403473300E1,7.254019380E-3,2.825249685E-3,6.185005885E-3
8.408283092E1,-1.107192412E-2,9.621120058E-3,-1.519526169E-2
8.413092883E1,2.367100911E-3,-2.977965865E-3,-1.145371469E-3
8.417902675E1,3.512472380E-3,2.596175298E-3,-2.046396956E-2
8.422712467E1,2.138026757E-3,4.505127668E-3,1.374445739E-3
8.427522258E1,-8.857538924E-3,9.162971983E-4,5.421424750E-3
8.432332050E1,0.000000000E0,-4.886918236E-3,1.565340906E-2
8.437141842E1,-7.177661173E-3,1.908952487E-3,-7.330377586E-3
8.441951633E1,9.926552884E-3,3.436114406E-3,9.926552884E-3
8.446761425E1,1.542433538E-2,-8.246674202E-3,4.276053514E-3
8.451571227E1,1.053741761E-2,-1.687514037E-2,3.665188793E-3
8.456381019E1,6.566796452E-3,-1.756236190E-3,1.779143699E-2
8.461190811E1,-3.375028074E-2,-5.497782957E-3,-5.726857111E-3
8.466000602E1,-3.054323897E-4,1.970038936E-2,3.741546767E-3
8.470810394E1,1.343902480E-2,-1.695149764E-2,-2.451094985E-2
8.475620186E1,4.115701467E-2,7.024944760E-3,-2.199113183E-2
8.480429977E1,-8.170315996E-3,-3.283398226E-3,6.261364091E-3
8.485239769E1,-2.076940238E-2,4.199695308E-3,2.206749097E-2
8.490049560E1,-2.481638081E-2,1.084284950E-2,4.276053514E-3
8.494859352E1,-1.603520010E-3,-1.160643063E-2,3.970621154E-3
8.499669144E1,1.740964688E-2,-1.137735695E-2,-2.038761228E-2
8.504478936E1,-2.138026757E-3,1.298087649E-3,-7.177661173E-3
8.509288727E1,-1.664606482E-2,-3.512472380E-3,5.345066893E-4
8.514098519E1,7.024944760E-3,1.603520010E-3,1.046105940E-2
8.518908311E1,-1.985310577E-3,-1.450803876E-2,1.397353224E-2
8.523718102E1,2.229656465E-2,-4.505127668E-3,1.901316643E-2
8.528527894E1,7.483093534E-3,-1.046105940E-2,3.054323897E-4
8.533337686E1,-1.069013379E-3,3.512472380E-3,7.635809743E-5
8.538147477E1,-1.122464053E-2,-7.330377586E-3,-1.832594397E-3
8.542957269E1,-9.621120058E-3,-5.039634649E-3,-2.153298259E-2
8.547767060E1,1.053741761E-2,1.336266659E-2,-2.901607659E-3
8.552576852E1,-1.007926930E-2,-1.901316643E-2,-5.497782957E-3
8.557386633E1,1.855501719E-2,9.162971750E-3,-2.672533505E-3
8.562196436E1,6.185005885E-3,-1.099556591E-2,1.649334840E-2
8.567006227E1,1.786779426E-2,2.138026757E-3,9.621120058E-3
8.571816008E1,1.076649129E-2,-2.313650399E-2,1.985310577E-3
8.576625800E1,7.864884101E-3,-3.436114406E-3,-1.229365356E-2
8.581435592E1,-1.542433538E-2,-4.046979360E-3,-1.221729536E-2
8.586245383E1,1.374445739E-3,5.726857111E-3,-7.330377586E-3
8.591055175E1,-1.198822167E-2,-2.328922041E-2,5.879573524E-3
8.595864967E1,3.741546767E-3,7.559451740E-3,3.207040019E-3
8.600674758E1,1.298087649E-3,1.221729559E-3,9.468403645E-3
8.605484550E1,-7.406735327E-3,-2.351829410E-2,2.038761228E-2
8.610294342E1,8.399390616E-3,1.397353224E-2,-1.985310577E-2
8.615104133E1,-1.481347065E-2,4.581485875E-3,7.177661173E-3
8.619913925E1,-2.435823344E-2,-4.046979360E-3,-1.847865991E-2
8.624723717E1,2.481638081E-2,3.390299529E-2,-1.336266659E-2
8.629533508E1,-1.443168055E-2,-3.138317913E-2,3.741546767E-3
8.634343290E1,2.787070535E-2,4.046979360E-3,-1.450803829E-3
8.639153081E1,-1.145371422E-2,5.345067009E-3,8.704823442E-3
8.643962873E1,-2.191477455E-2,-4.046979360E-3,1.191186346E-2
8.648772665E1,1.389717404E-2,3.817904973E-3,-4.810560029E-3
8.653582456E1,-4.886918236E-3,-1.038470119E-2,-4.199695308E-3
8.658392248E1,-5.497782957E-3,1.153007243E-2,-1.588248461E-2
8.663202040E1,-6.108647678E-3,9.468403645E-3,-3.817904799E-4
8.668011831E1,-2.344193682E-2,-1.740964688E-2,8.399390616E-3
8.672821613E1,-1.290451828E-2,1.091920771E-2,1.725693047E-2
8.677631404E1,-1.824958436E-2,-1.290451828E-2,1.191186346E-2
8.682441196E1,1.206457894E-2,-8.170315996E-3,-2.321286127E-2
8.687250988E1,1.114828233E-2,6.185005885E-3,-1.351538301E-2
8.692060779E1,-8.246674202E-3,-1.206457894E-2,-8.781181648E-3
8.696870571E1,1.298087649E-3,5.039634649E-3,-2.825249685E-3
8.701680363E1,7.101302966E-3,7.254019380E-3,9.621120058E-3
8.706490144E1,9.162971983E-4,3.130682046E-3,7.101302966E-3
8.711299936E1,4.856374860E-2,5.001455545E-2,1.198822167E-2
8.716109727E1,-4.520399496E-2,1.336266659E-2,5.528326333E-2
8.720919519E1,-3.138317913E-2,3.436114406E-3,3.229947388E-2
8.725729310E1,1.473711245E-2,-4.123337101E-3,-4.856374860E-2
8.730539092E1,3.145953640E-2,-2.962694131E-2,-5.322159454E-2
8.735348883E1,9.697478265E-3,-5.322159454E-2,-3.382663801E-2
8.740158675E1,8.933897130E-3,-1.603520103E-2,-8.933897130E-3
8.744968467E1,-4.230238497E-2,1.091920771E-2,7.712167688E-3
8.749778258E1,-4.352411628E-2,-2.214384731E-3,4.352411628E-2
8.754588050E1,-2.046396956E-2,-4.329504073E-2,5.803215504E-2
8.759397831E1,-1.084284950E-2,-4.864010960E-2,1.404988952E-2
8.764207623E1,2.787070535E-2,3.054323979E-2,-4.360047355E-2
8.769017415E1,-3.802633286E-2,-1.069013402E-2,-1.557705179E-2
8.773827206E1,-1.511890348E-2,4.276053514E-3,-2.199113183E-2
8.778636988E1,2.955058403E-2,1.168278884E-2,-7.101302966E-3
8.783446779E1,5.345066893E-4,-2.626718581E-2,1.687514037E-2
8.788256571E1,6.872228812E-3,-1.069013379E-3,1.015562657E-2
8.793066363E1,-1.756236330E-2,9.544761851E-3,5.497782957E-3
8.797876154E1,-1.847865991E-2,2.977965865E-3,-2.008217946E-2
8.802685936E1,2.787070535E-2,-9.926552884E-4,-2.718348242E-2
8.807495727E1,1.366809942E-2,-1.802051067E-2,-1.931859925E-2
8.812305519E1,-3.512472380E-3,1.290451828E-2,-1.649334840E-2
8.817115310E1,-1.359174121E-2,3.428478539E-2,-7.635809598E-4
8.821925092E1,3.054323839E-3,2.214384731E-3,1.259908639E-2
8.826734883E1,2.932151034E-2,-7.177661173E-3,1.351538301E-2
8.831544675E1,7.406735327E-3,-2.290742996E-4,1.046105940E-2
8.836354467E1,5.421424750E-3,-2.825249685E-3,1.259908639E-2
8.841164248E1,-3.588830587E-3,-9.850194678E-3,2.519817324E-3
8.845974040E1,-5.268708803E-3,-1.382081583E-2,-2.443459118E-3
8.850783831E1,-1.679878123E-2,-5.421424750E-3,-3.207040019E-3
8.855593613E1,-1.924224012E-2,9.162971750E-3,-2.580903657E-2
8.860403404E1,6.719512399E-3,1.091920771E-2,-4.046979174E-2
8.865213196E1,1.137735695E-2,-1.588248461E-2,-1.664606482E-2
8.870022988E1,1.412624773E-2,-4.505127668E-3,-2.924515121E-2
8.874832769E1,-9.697478265E-3,5.115992390E-3,6.032289471E-3
8.879642561E1,-3.688096255E-2,-1.870773360E-2,1.229365356E-2
8.884452352E1,2.076940238E-2,2.733619884E-2,-2.863428742E-2
8.889262133E1,1.924224012E-2,-1.198822167E-2,-2.932151034E-2
8.894071925E1,4.123337101E-3,-5.268708803E-3,-1.366809942E-2
8.898881717E1,-1.832594397E-3,2.054032870E-2,-5.421424750E-3
8.903691498E1,-4.581485991E-4,2.542724647E-2,8.628465235E-3
8.908501290E1,-5.650499370E-3,-3.184132650E-2,3.642281145E-2
8.913311081E1,-1.527161949E-4,-2.939786762E-2,2.435823344E-2
8.918120863E1,-2.290742937E-3,1.504254527E-2,-4.505127668E-3
8.922930654E1,-5.940660089E-2,-4.581485991E-4,1.030834299E-2
8.927740446E1,-9.315688163E-3,1.580612548E-2,-4.497491941E-2
8.932550227E1,3.191768378E-2,4.199695308E-3,-4.360047355E-2
8.937360019E1,6.719512399E-3,-2.641990222E-2,-2.748891525E-2
8.942169810E1,-4.810560029E-3,1.137735695E-2,-1.603520103E-2
8.946979592E1,-1.817322709E-2,4.581485991E-4,8.933897130E-3
8.951789383E1,-4.115701467E-2,-1.664606482E-2,1.000291109E-2
8.956599175E1,1.206457894E-2,1.091920771E-2,-3.214675933E-2
8.961408956E1,1.458439697E-2,-4.581485991E-4,-4.970912263E-2
8.966218748E1,3.565923125E-2,-1.832594350E-2,-2.092211880E-2
8.971028540E1,4.734201822E-3,-6.872228696E-4,2.069304511E-2
8.975838321E1,-3.794997558E-2,2.420551702E-2,2.390008420E-2
8.980648113E1,-6.490438245E-3,1.771507785E-2,2.764163166E-2
8.985457904E1,5.039634649E-3,-2.970330045E-2,1.053741761E-2
8.990267686E1,8.475748822E-3,2.367100911E-3,1.450803829E-3
8.995077477E1,-4.466948658E-2,3.741546767E-3,-4.046979360E-3
8.999887269E1,-3.764454275E-2,1.550069358E-2,-1.458439697E-2
9.004697050E1,-2.519817324E-3,-6.414080039E-3,1.175914705E-2
9.009506842E1,3.100138716E-2,-3.436114267E-2,3.558287397E-2
9.014316623E1,2.641990222E-2,1.336266659E-2,8.376483619E-2
9.019126415E1,-4.505127668E-2,2.557996288E-2,1.123991162E-1
9.023936206E1,-1.443168055E-2,2.664897591E-2,1.073594838E-1
9.028745988E1,4.046979174E-2,1.366809942E-2,4.283689335E-2
9.033555779E1,5.696314201E-2,-1.107192412E-2,3.848448023E-2
9.038365571E1,-1.634063199E-2,5.192350596E-3,6.429351866E-2
9.043175352E1,-3.558287397E-2,2.435823344E-2,7.338013500E-2
9.047985144E1,-2.596175298E-2,3.604102135E-2,7.108938694E-2
9.052794925E1,-4.665479809E-2,1.588248461E-2,7.918334752E-2
9.057604717E1,-4.795288667E-2,4.474584386E-2,5.581776798E-2
9.062414508E1,-8.132137358E-2,-1.427896414E-2,4.046979360E-3
9.067224290E1,1.649334840E-2,-4.810560029E-3,-5.085449293E-2
9.072034081E1,3.772090003E-2,-2.115119249E-2,-7.567087561E-2
9.076843863E1,1.611155830E-2,-1.359174121E-2,-7.093667239E-2
9.081653654E1,3.840812296E-2,6.795870606E-3,-4.482220486E-2
9.086463446E1,3.130682046E-3,-1.298087649E-2,6.108647678E-3
9.091273227E1,-1.359174121E-2,1.863137633E-2,2.466366626E-2
9.096083019E1,-7.941242307E-3,2.680169232E-2,3.008509055E-2
9.100892800E1,2.275471389E-2,5.421424750E-3,9.926552884E-4
9.105702592E1,2.031125315E-2,1.840230078E-2,-1.069013402E-2
9.110512383E1,-2.588539571E-2,1.641699113E-2,3.436114406E-3
9.115322165E1,-2.565632015E-2,-3.436114406E-3,2.214384731E-3
9.120131956E1,2.664897591E-2,-8.093958721E-3,-7.483093534E-3
9.124941738E1,3.268126398E-2,-7.101302966E-3,-7.406735327E-3
9.129751529E1,1.145371469E-3,1.481347065E-2,1.527161989E-2
9.134561311E1,-1.786779426E-2,5.421424750E-3,2.527453005E-2
9.139371102E1,1.970038936E-2,1.091920771E-2,1.221729536E-2
9.144180894E1,1.015562657E-2,6.490438245E-3,1.855501719E-2
9.148990675E1,-1.840230078E-2,2.474002354E-2,-6.566796452E-3
9.153800467E1,-1.366809942E-2,4.390590638E-2,-2.252563834E-2
9.158610248E1,-2.290742937E-3,5.345066893E-4,-2.565632015E-2
9.163420040E1,3.107774630E-2,1.931859925E-2,-4.390590638E-2
9.168229821E1,-1.130099874E-2,4.199695308E-3,-2.443459071E-2
9.173039613E1,-3.130682046E-3,-6.490438245E-3,1.298087649E-2
9.177849394E1,1.794415340E-2,-1.320995111E-2,4.581485875E-3
9.182659186E1,-1.679878100E-3,5.726857111E-3,-2.092211880E-2
9.187468977E1,-3.283398226E-3,1.924224012E-2,-2.680169232E-2
9.192278758E1,1.496618707E-2,6.566796452E-3,-2.871064469E-2
9.197088550E1,1.947131567E-2,-1.916588284E-2,4.963276442E-3
9.201898331E1,1.160643063E-2,1.168278884E-2,-6.108647678E-3
9.206708123E1,-1.817322709E-2,2.832885459E-2,2.832885459E-2
9.211517904E1,-3.512472659E-2,-1.038470119E-2,4.130972922E-2
9.216327696E1,2.787070535E-2,1.611155830E-2,3.283398226E-3
9.221137477E1,-1.679878100E-3,-9.621120058E-3,-1.107192412E-2
9.225947269E1,9.162971750E-3,4.077522457E-2,-2.764163166E-2
9.230757050E1,5.421424750E-3,1.824958436E-2,-2.237292193E-2
9.235566842E1,-4.581485991E-4,-2.099847607E-2,5.955931731E-3
9.240376623E1,2.076940238E-2,9.697478265E-3,-1.374445762E-2
9.245186415E1,-1.710421406E-2,1.191186346E-2,1.908952487E-3
9.249996196E1,-3.344484791E-2,4.581485991E-4,6.948587019E-3
9.254805988E1,8.323032409E-3,1.404988952E-2,-2.061668597E-2
9.259615779E1,-2.061668551E-3,-2.199113183E-2,-4.046979174E-2
9.264425561E1,1.099556591E-2,-2.130390890E-2,-4.169152305E-2
9.269235352E1,-1.374445739E-3,-1.962403022E-2,-4.963276163E-2
9.274045133E1,-1.046105940E-2,-2.993237413E-2,-3.840812296E-2
9.278854925E1,1.237001177E-2,-1.252272818E-2,-3.611737862E-2
9.283664706E1,1.931859925E-2,1.221729559E-3,-1.733328775E-2
9.288474498E1,1.252272818E-2,9.697478265E-3,-6.261364091E-3
9.293284279E1,4.184423760E-2,8.101594448E-2,1.634063199E-2
9.298094071E1,4.581485875E-3,5.673406646E-2,5.619955808E-2
9.302903852E1,-1.504254527E-2,-2.672533318E-2,5.955931544E-2
9.307713644E1,1.206457894E-2,-3.222311661E-2,5.085449293E-2
9.312523425E1,-2.542724647E-2,-4.604393244E-2,1.603520010E-3
9.317333217E1,2.519817324E-3,1.153007243E-2,-3.031416424E-2
9.322142998E1,2.138026757E-3,3.741546767E-3,-2.183841541E-2
9.326952790E1,-1.603520103E-2,-5.535962060E-2,2.397644334E-2
9.331762571E1,-8.933897130E-3,-1.313359290E-2,4.581485689E-2
9.336572363E1,-7.773254067E-2,7.635809598E-4,6.635518372E-2
9.341382144E1,-2.306014486E-2,3.970621154E-2,7.788525894E-3
9.346191936E1,4.283689335E-2,9.086613543E-3,-2.535088919E-2
9.351001717E1,1.611155830E-2,-3.543015569E-2,-2.893971838E-2
9.355811508E1,1.794415340E-2,2.344193682E-2,-4.298960790E-2
9.360621290E1,-8.857538924E-3,3.840812296E-2,-4.543306679E-2
9.365431071E1,8.933897130E-3,1.183550525E-2,-3.497200832E-2
9.370240863E1,4.780016840E-2,3.382663801E-2,-1.656970754E-2
9.375050644E1,-3.184132650E-2,2.924515121E-2,1.931859925E-2
9.379860436E1,-6.520981342E-2,2.794706449E-2,5.047270283E-2
9.384670217E1,-3.100138716E-2,3.840812296E-2,8.781181648E-3
9.389480008E1,8.399390499E-4,9.392046370E-3,-2.191477455E-2
9.394289790E1,2.428187430E-2,-4.734201822E-3,-4.825831577E-2
9.399099581E1,4.428769462E-3,-9.392046370E-3,-4.772381112E-2
9.403909363E1,1.435532235E-2,4.046979360E-3,-4.871646687E-2
9.408719154E1,2.290742996E-4,3.061959706E-2,-3.291033953E-2
9.413528936E1,-1.099556591E-2,-2.214384824E-2,1.198822167E-2
9.418338717E1,2.283107117E-2,5.268708803E-3,9.544761851E-3
9.423148508E1,-2.367100911E-3,4.199695308E-3,1.206457894E-2
9.427958290E1,-1.137735695E-2,-8.399390499E-4,1.198822167E-2
9.432768081E1,-2.901607659E-3,-2.214384731E-3,-7.483093534E-3
9.437577863E1,-1.374445739E-3,7.483093534E-3,-2.038761228E-2
9.442387654E1,-3.665188793E-3,3.054323897E-4,-1.702785492E-2
9.447197436E1,2.183841541E-2,-2.519817324E-3,-2.382372692E-2
9.452007217E1,2.519817278E-2,3.130682046E-3,-1.840230078E-2
9.456817008E1,-1.603520010E-3,7.483093534E-3,2.848157100E-2
9.461626790E1,-2.695440874E-2,-1.664606482E-2,3.833176568E-2
9.466436581E1,-1.168278884E-2,-8.323032409E-3,2.519817324E-3
9.471246363E1,-4.199695308E-3,-9.926552884E-4,-2.244928107E-2
9.476056154E1,7.941242307E-3,-5.192350596E-3,-3.565923125E-2
9.480865936E1,1.779143699E-2,3.894262947E-3,-2.046396956E-2
9.485675717E1,6.566796452E-3,9.315688163E-3,-1.985310577E-2
9.490485508E1,-9.086613543E-3,1.687514037E-2,8.857538924E-3
9.495295290E1,-1.618791744E-2,5.345066893E-4,1.626427472E-2
9.500105081E1,6.872228696E-4,-1.053741761E-2,8.170315996E-3
9.504914863E1,-3.130682046E-3,1.214093715E-2,-8.781181648E-3
9.509724644E1,-1.985310577E-2,1.412624773E-2,-7.101302966E-3
9.514534436E1,1.237001177E-2,-1.076649129E-2,-2.290742996E-4
9.519344217E1,2.298378758E-2,-1.534797717E-2,7.635809743E-5
9.524153998E1,-5.497782957E-3,9.697478265E-3,-8.475748822E-3
