"Time (s)","Acceleration x (m/s^2)","Acceleration y (m/s^2)","Acceleration z (m/s^2)"
1.795324000E-2,-2.365305185E0,6.276971817E0,5.626124382E0
3.719230200E-2,-2.036890268E0,6.549753666E0,6.180660725E0
5.643136500E-2,-1.797608018E0,6.442076683E0,6.457630157E0
7.567042700E-2,-1.789233088E0,6.478567123E0,6.504290104E0
9.490949000E-2,-1.966900229E0,6.483951092E0,6.507281303E0
1.141484480E-1,-2.003390789E0,6.602993965E0,6.563512325E0
1.333875100E-1,-1.932204247E0,6.579664230E0,6.787241459E0
1.526265730E-1,-2.053640127E0,6.424130440E0,6.803991318E0
1.718656350E-1,-2.185843468E0,6.364908218E0,6.639484406E0
1.911046980E-1,-2.140379906E0,6.343372822E0,6.530611038E0
2.103437600E-1,-2.115853310E0,6.522834301E0,6.539584160E0
2.295828230E-1,-1.917847395E0,6.707081795E0,6.373881340E0
2.488217810E-1,-1.849651933E0,6.856633186E0,6.172883987E0
2.680608440E-1,-1.713261008E0,6.948158741E0,5.889933109E0
2.872999060E-1,-1.369890928E0,7.076773167E0,5.808577061E0
3.065389690E-1,-1.743171334E0,7.284948349E0,6.284150600E0
3.257780310E-1,-2.142174482E0,7.503293514E0,7.086942673E0
3.450170940E-1,-2.000998020E0,7.540382385E0,7.244868755E0
3.642560520E-1,-1.599601984E0,7.936394691E0,6.794419765E0
3.834951150E-1,-1.713859200E0,8.134400368E0,6.487540245E0
4.027341770E-1,-1.490130305E0,7.939385414E0,6.446862221E0
4.219732400E-1,-1.209571838E0,7.880761147E0,6.073582172E0
4.412123020E-1,-9.954141974E-1,7.805985451E0,5.958128452E0
4.604513650E-1,-8.895317912E-1,7.600203037E0,6.230311871E0
4.796903230E-1,-7.322037220E-1,7.145566463E0,6.920641422E0
4.989293850E-1,-3.044866920E-1,6.849454880E0,7.757531166E0
5.181684480E-1,3.511467278E-1,6.981658459E0,8.487939835E0
5.374075100E-1,1.082752228E0,7.154539585E0,8.753543854E0
5.566465730E-1,1.134197950E0,6.459424496E0,8.573483467E0
5.758855310E-1,6.897311211E-1,5.882156372E0,8.221140862E0
5.951245940E-1,1.064806059E-1,5.322834015E0,8.965906143E0
6.143636560E-1,6.065805554E-1,5.120640278E0,9.158528328E0
6.336027190E-1,7.573283911E-1,4.861617565E0,9.299106598E0
6.528417810E-1,6.915257573E-1,4.671388149E0,9.664012909E0
6.720807400E-1,6.382854581E-1,4.703691006E0,9.846465111E0
6.913198020E-1,1.043270707E0,4.732405186E0,9.195018768E0
7.105588650E-1,3.720839322E-1,4.789832592E0,8.391629219E0
7.297979270E-1,-1.395613790E0,5.078765869E0,8.201399803E0
7.490369900E-1,-1.672582984E0,5.166104317E0,7.919644833E0
7.682759480E-1,6.041877344E-2,4.846662045E0,7.853243828E0
7.875150100E-1,1.214955688E0,4.765904427E0,7.865208149E0
8.067540730E-1,1.899302959E0,5.033302307E0,7.833503246E0
8.259931350E-1,1.752742529E0,5.203192711E0,7.721638680E0
8.452321980E-1,1.147358418E0,5.379663467E0,6.923632145E0
8.644711560E-1,-9.212367237E-2,5.877370834E0,6.576074600E0
8.837102190E-1,9.391828626E-2,5.914459229E0,6.726224422E0
9.029492810E-1,1.131206870E0,6.090929985E0,6.317649841E0
9.221883440E-1,9.708877802E-1,6.882356167E0,6.183053493E0
9.414274060E-1,1.573879123E0,7.231110096E0,6.105287075E0
9.606663650E-1,2.127817631E0,7.255038261E0,5.446064472E0
9.799054270E-1,1.097109199E0,7.499105930E0,4.831109047E0
9.991444900E-1,-5.210371017E-1,7.486543655E0,5.286941528E0
1.018383552E0,4.821537733E-1,7.387839794E0,5.347958565E0
1.037622510E0,1.133599758E0,7.958528042E0,5.532206059E0
1.056861573E0,8.685946465E-1,8.502297401E0,5.377869129E0
1.076101260E0,6.023930907E-1,8.958129883E0,5.112265587E0
1.095339698E0,5.234299302E-1,9.096913338E0,4.983053207E0
1.114578760E0,2.267199457E-1,8.801998138E0,6.828517437E0
1.133817719E0,2.404786795E-1,8.404191017E0,8.434102058E0
1.153056781E0,2.991028316E-2,8.679366112E0,8.628518105E0
1.172295844E0,-3.290131316E-2,8.574680328E0,7.748558044E0
1.191534906E0,8.285148144E-1,8.242675781E0,7.062416077E0
1.210773865E0,1.676172256E0,8.064410210E0,7.157530785E0
1.230012927E0,1.177866936E0,8.087141991E0,7.619943619E0
1.249251990E0,5.952146053E-1,7.733004570E0,7.628318787E0
1.268491052E0,6.843472719E-1,7.261020184E0,7.483552933E0
1.287730010E0,1.117448211E0,7.111468792E0,7.383054256E0
1.306969073E0,1.328016520E0,7.168896675E0,6.899703979E0
1.326208135E0,1.595414519E0,7.264011383E0,5.782256126E0
1.345447198E0,1.440479279E0,7.194619656E0,5.228317261E0
1.364686156E0,7.734799385E-1,6.990631580E0,5.603392601E0
1.383925219E0,8.117650747E-1,6.847660065E0,5.959922791E0
1.403164281E0,7.686942816E-1,6.877570629E0,6.052046776E0
1.422403344E0,4.845465720E-1,6.969096184E0,5.654240131E0
1.441642406E0,-9.212367237E-2,6.970890522E0,5.229514122E0
1.460881365E0,-4.618147612E-1,6.876374245E0,5.224728107E0
1.480120427E0,-5.156532526E-1,6.940980434E0,5.602196217E0
1.499359490E0,-4.079762697E-1,6.743572235E0,5.890531063E0
1.518598552E0,-2.602194548E-1,6.837490559E0,5.819942951E0
1.537837510E0,1.914258152E-1,7.237690449E0,5.679364681E0
1.557076573E0,5.904290080E-1,7.424928665E0,5.860620975E0
1.576315635E0,7.286145091E-1,7.569096088E0,5.518447399E0
1.595554698E0,8.261220455E-1,7.875975609E0,4.869394302E0
1.614793656E0,9.768698215E-1,8.219346046E0,4.469792843E0
1.634032719E0,1.347757339E0,8.504091263E0,4.252644062E0
1.653271781E0,1.285543919E0,8.602795601E0,4.597808838E0
1.672510844E0,1.133599758E0,8.890532494E0,4.975874901E0
1.691749802E0,1.128814101E0,9.346963882E0,4.730011940E0
1.710988865E0,8.105686903E-1,9.301499367E0,4.971088886E0
1.730227927E0,9.810572863E-1,9.151350021E0,5.732604980E0
1.749466990E0,1.442273855E0,9.030512810E0,6.589833736E0
1.768706052E0,1.564906001E0,8.845666885E0,7.278368473E0
1.787945010E0,5.359922647E-1,9.403194427E0,7.232904434E0
1.807184073E0,-3.990031779E-1,9.723235130E0,5.645267010E0
1.826423135E0,-9.912267923E-1,9.736394882E0,4.218546391E0
1.845662198E0,-9.996016622E-1,9.150752068E0,4.380660057E0
1.864901156E0,-4.139583111E-1,8.319246292E0,5.303092957E0
1.884140219E0,9.391828626E-2,7.882555962E0,5.771488190E0
1.903379281E0,2.057827413E-1,7.676773071E0,5.652445316E0
1.922618344E0,2.985046208E-1,7.632505894E0,5.656034470E0
1.941857302E0,5.982056633E-2,7.566105366E0,5.811567783E0
1.961096365E0,1.591227055E-1,7.423732281E0,5.954539299E0
1.980335427E0,5.682953820E-2,7.230511665E0,6.010770321E0
1.999574490E0,-3.134597540E-1,6.960123062E0,5.631507874E0
2.018813448E0,-3.541377485E-1,6.726822853E0,5.325226784E0
2.038052510E0,-9.092725813E-2,6.587440968E0,5.322235584E0
2.057291573E0,2.153540403E-2,6.407979012E0,5.743970871E0
2.076530635E0,-1.794616925E-3,6.394220352E0,5.687141418E0
2.095769698E0,2.207378894E-1,6.522834301E0,5.495715618E0
2.115008656E0,1.435693651E-1,6.705287457E0,5.449653625E0
2.134247719E0,-8.733802289E-2,6.965506554E0,5.593821049E0
2.153486781E0,-4.905286431E-2,7.280761242E0,5.830112457E0
2.172725844E0,-1.094716340E-1,7.503293514E0,5.595615864E0
2.191964802E0,-4.151547253E-1,7.688737392E0,5.398207664E0
2.211203865E0,-5.790630579E-1,7.897511005E0,5.574080467E0
2.230442927E0,-2.632104978E-2,8.137989998E0,6.077171326E0
2.249681990E0,6.011967063E-1,8.226524353E0,6.448058605E0
2.268920948E0,7.830511928E-1,8.215756416E0,6.551548481E0
2.288160010E0,6.251249313E-1,8.413164139E0,6.571887493E0
2.307399073E0,2.931207716E-1,8.848059654E0,6.637690067E0
2.326638135E0,-9.571290761E-2,9.005986214E0,6.850052834E0
2.345877198E0,-2.889333367E-1,9.138788223E0,7.564310551E0
2.365116156E0,-1.298106313E-1,9.692726135E0,8.079365730E0
2.384355219E0,7.238288224E-2,9.709476471E0,7.329215527E0
2.403594281E0,3.206382394E-1,9.026923180E0,6.589833736E0
2.422833344E0,7.513462901E-1,8.041678429E0,7.094718933E0
2.442072302E0,1.314856052E0,7.304090977E0,7.768298626E0
2.461311365E0,1.535593987E0,7.188039303E0,7.833503246E0
2.480550427E0,1.213759303E0,7.186842918E0,7.369295597E0
2.499789490E0,9.667003751E-1,7.200003147E0,6.456433773E0
2.519028552E0,7.100701332E-1,7.101299286E0,5.707480431E0
2.538267510E0,5.790630579E-1,6.795616150E0,5.388636589E0
2.557506573E0,4.630111754E-1,6.520441532E0,5.404190063E0
2.576745635E0,5.754738450E-1,6.388238430E0,5.690132141E0
2.595984698E0,6.520441771E-1,6.367899418E0,5.791228771E0
2.615223656E0,1.238285750E-1,6.407381058E0,5.751149178E0
2.634462719E0,-4.582255483E-1,6.523432732E0,5.559125423E0
2.653701781E0,-5.216353536E-1,6.516852379E0,5.561518192E0
2.672940844E0,-1.477568001E-1,6.537789822E0,5.739783287E0
2.692179906E0,1.345962733E-1,6.701099873E0,5.796612740E0
2.711418865E0,2.051845491E-1,7.107281685E0,5.617151260E0
2.730657927E0,1.226321608E-1,7.527820110E0,5.386243820E0
2.749896990E0,1.196411322E-3,7.812565804E0,5.274977684E0
2.769136052E0,1.106680483E-1,7.992625713E0,5.183452129E0
2.788375115E0,5.766702294E-1,7.981858253E0,5.503491879E0
2.807614073E0,8.195417523E-1,8.102695465E0,5.927619934E0
2.826853135E0,6.586244106E-1,8.460422516E0,6.016752720E0
2.846092198E0,2.015953064E-1,8.786444664E0,5.716453075E0
2.865331260E0,-1.369891018E-1,8.918647766E0,5.720042706E0
2.884570323E0,-6.759724021E-2,8.781659126E0,6.250052929E0
2.903809281E0,2.524427772E-1,8.610571861E0,7.063014030E0
2.923048344E0,2.895315289E-1,8.620143890E0,7.864609718E0
2.942287406E0,-1.734796464E-1,9.273384094E0,7.689933777E0
2.961526469E0,-8.380861282E-1,9.730413437E0,5.732604980E0
2.980765531E0,-1.410568953E0,9.883553505E0,4.777868748E0
3.000004490E0,-7.645068169E-1,8.571688652E0,6.103492260E0
3.019243552E0,4.947160780E-1,7.123433113E0,8.106285095E0
3.038482615E0,1.349551916E0,6.840481758E0,8.807381630E0
3.057721677E0,7.555337548E-1,7.186842918E0,7.606783390E0
3.076960740E0,-5.024927258E-1,7.521239758E0,6.235097408E0
3.096199698E0,-1.076770186E0,7.477570534E0,5.726622581E0
3.115438760E0,-7.950153351E-1,7.233502865E0,5.688337803E0
3.134677823E0,-2.416750938E-1,6.936194420E0,5.760720730E0
3.153916885E0,1.998006850E-1,6.665207386E0,5.792425632E0
3.173155948E0,5.724828243E-1,6.478567123E0,5.900700569E0
3.192395010E0,7.902296782E-1,6.412166595E0,6.047859192E0
3.211633969E0,8.321040869E-1,6.457630157E0,5.913861275E0
3.230873031E0,8.141579032E-1,6.429514408E0,5.713462353E0
3.250112094E0,6.843472719E-1,6.425326824E0,5.566303730E0
3.269351156E0,5.198407173E-1,6.526423931E0,5.687141418E0
3.288590219E0,5.575276613E-1,6.760322094E0,5.809773445E0
3.307829281E0,6.041877270E-1,7.144968510E0,5.715855122E0
3.327068240E0,4.043870270E-1,7.586444378E0,5.452046394E0
3.346307302E0,2.739782035E-1,7.823333740E0,5.386841774E0
3.365546365E0,5.718846321E-1,7.819146156E0,5.795416355E0
3.384785427E0,9.266205430E-1,7.808976650E0,6.352943897E0
3.404024490E0,9.708877802E-1,7.996214867E0,6.559325218E0
3.423263552E0,8.829515576E-1,8.319844246E0,6.334998131E0
3.442502510E0,8.470591903E-1,8.601598740E0,6.121438503E0
3.461741573E0,7.154539824E-1,8.647661209E0,6.178267956E0
3.480980635E0,7.351947427E-1,8.572287560E0,6.479763508E0
3.500219698E0,1.000199914E0,8.772088051E0,7.195816040E0
3.519458760E0,8.817551732E-1,9.314660072E0,7.548159122E0
3.538697823E0,8.063812256E-1,9.263215065E0,6.661618233E0
3.557936885E0,6.496513486E-1,9.046664238E0,5.967101574E0
3.577175844E0,7.010970116E-1,8.406583786E0,6.134000778E0
3.596414906E0,1.385444283E0,7.694719315E0,6.678966045E0
3.615653969E0,2.024327993E0,7.261020184E0,7.214958668E0
3.634893031E0,1.746162295E0,7.008577347E0,7.069594383E0
3.654132094E0,8.548358679E-1,6.993024349E0,6.326025009E0
3.673371156E0,1.328016520E-1,6.912864685E0,5.564508915E0
3.692610219E0,-1.788634956E-1,6.793223381E0,5.187041283E0
3.711849177E0,2.691925503E-2,6.726224422E0,5.377869129E0
3.731088240E0,4.857429862E-1,6.633502483E0,5.642275810E0
3.750327302E0,7.304090858E-1,6.713063717E0,5.697908878E0
3.769566365E0,5.946164131E-1,6.875177860E0,5.295316696E0
3.788805427E0,2.769692242E-1,7.022336483E0,4.936991215E0
3.808044490E0,8.434699476E-2,7.026523590E0,4.941178799E0
3.827283552E0,3.876372576E-1,7.017550468E0,5.271986485E0
3.846522615E0,7.369893789E-1,7.162316322E0,5.667998791E0
3.865761573E0,6.376872063E-1,7.423732281E0,5.691328526E0
3.885000635E0,2.697907388E-1,7.811369419E0,5.389832973E0
3.904239698E0,7.357929647E-2,8.159524918E0,5.167300701E0
3.923478760E0,1.651047617E-1,8.237292290E0,5.291727066E0
3.942717823E0,8.356932998E-1,8.221140862E0,5.699105263E0
3.961956885E0,1.046859860E0,8.222934723E0,6.023332596E0
3.981195948E0,6.807580590E-1,8.381459236E0,5.944369793E0
4.000435010E0,6.580262631E-2,8.750552177E0,5.713462353E0
4.019674073E0,-2.548356056E-1,8.916254997E0,5.828916073E0
4.038913031E0,8.973085135E-2,8.666205406E0,6.753741741E0
4.058152094E0,6.843472719E-1,8.319246292E0,8.038687706E0
4.077391156E0,9.667003751E-1,8.511270523E0,8.612964630E0
4.096630219E0,1.256231815E-1,9.461818695E0,7.470392227E0
4.115869281E0,-6.831508875E-1,1.038724327E1,4.858027935E0
4.135108344E0,-9.726824164E-1,1.046022415E1,4.327419758E0
4.154347406E0,2.033899166E-2,8.968897820E0,5.693721294E0
4.173586469E0,1.426720500E0,7.428517818E0,7.131807804E0
4.192825531E0,1.961516380E0,6.714858532E0,7.951349735E0
4.212064594E0,7.686942816E-1,6.702894211E0,7.468597889E0
4.231303656E0,-8.297112584E-1,6.939185619E0,6.295516491E0
4.250542615E0,-1.741974831E0,7.076174736E0,5.609972477E0
4.269781677E0,-1.744965911E0,6.928418159E0,5.769693375E0
4.289020740E0,-1.279561877E0,6.660421848E0,6.050251961E0
4.308259802E0,-1.059422255E0,6.471987247E0,5.994020939E0
4.327498865E0,-8.596215248E-1,6.431309223E0,5.929414749E0
4.346737927E0,-5.569294691E-1,6.372086525E0,6.068198204E0
4.365976990E0,-1.657029688E-1,6.389434814E0,6.134599209E0
4.385216052E0,1.926222295E-1,6.454638958E0,6.083751678E0
4.404455115E0,1.794617027E-1,6.550352097E0,5.741578102E0
4.423694177E0,3.529413417E-2,6.626922131E0,5.626722336E0
4.442933240E0,-3.152543902E-1,6.766902447E0,5.392824173E0
4.462172302E0,-5.509474277E-1,6.979863644E0,5.303691387E0
4.481411260E0,-6.454638839E-1,7.297510624E0,5.402993679E0
4.500650323E0,-7.465606928E-1,7.627720356E0,5.547759533E0
4.519889385E0,-6.418746710E-1,7.850851059E0,5.706283569E0
4.539128448E0,-3.320041299E-1,7.923832417E0,6.039484501E0
4.558367510E0,-3.158525825E-1,7.984251022E0,6.486942291E0
4.577606573E0,-5.569294691E-1,8.254041672E0,6.506084919E0
4.596845635E0,-7.788637877E-1,8.550153732E0,6.365506649E0
4.616084698E0,-8.715856671E-1,8.748159409E0,6.209374905E0
4.635323760E0,-8.973084688E-1,8.916254997E0,6.192026615E0
4.654562823E0,-9.290133715E-1,9.095717430E0,6.220740795E0
4.673801885E0,-8.871390224E-1,9.349356651E0,6.360122681E0
4.693040948E0,-9.559326172E-1,9.772287369E0,6.690930367E0
4.712280010E0,-9.170492887E-1,1.008634567E1,6.330212116E0
4.731519073E0,-8.141579032E-1,9.740582466E0,5.663811207E0
4.750758135E0,-4.438686073E-1,8.736793518E0,5.950950146E0
4.769997094E0,1.316052489E-2,7.440482140E0,7.009175777E0
4.789236156E0,2.835494876E-1,6.711269379E0,7.837690353E0
4.808475219E0,2.183450609E-1,6.615556240E0,7.897511005E0
4.827714281E0,-3.332005441E-1,6.973881721E0,7.130611420E0
4.846953344E0,-7.692924738E-1,7.231708050E0,6.139384747E0
4.866192406E0,-5.946164131E-1,7.297510624E0,5.776872158E0
4.885431469E0,-8.913264424E-2,7.245467186E0,5.649454117E0
4.904670531E0,3.942175210E-1,7.167101860E0,5.787639618E0
4.923909594E0,5.988038778E-1,7.116852760E0,5.906682491E0
4.943148656E0,4.504488707E-1,6.963113785E0,6.072983742E0
4.962387719E0,3.296113312E-1,6.824928284E0,6.080760479E0
4.981626781E0,1.866401732E-1,6.850651264E0,5.845665932E0
5.000865844E0,-1.800599098E-1,6.846463680E0,5.487340450E0
5.020104906E0,-5.922235847E-1,6.956533432E0,5.211567879E0
5.039343969E0,-8.249256015E-1,7.070192814E0,5.255236626E0
5.058583031E0,-7.274180651E-1,7.318448067E0,5.327021599E0
5.077822094E0,-4.510470629E-1,7.591229916E0,5.219344616E0
5.097061156E0,-3.343969584E-1,7.824530125E0,4.952544689E0
5.116300219E0,-2.512463741E-2,7.805985451E0,4.994419098E0
5.135539281E0,2.195414752E-1,7.811967850E0,5.401198864E0
5.154778344E0,1.286142170E-1,7.909475327E0,5.694917679E0
5.174017406E0,-2.380858511E-1,8.114660263E0,5.669195175E0
5.193256469E0,-3.978067636E-1,8.400602341E0,5.677569866E0
5.212495531E0,-6.065805554E-1,8.567501068E0,6.000002861E0
5.231734490E0,-7.363911867E-1,8.628518105E0,6.363113403E0
5.250973552E0,-5.066801906E-1,8.644071579E0,6.799205780E0
5.270212615E0,-1.890329868E-1,8.796015739E0,7.171887875E0
5.289451677E0,-2.249253243E-1,9.428917885E0,6.958926678E0
5.308690740E0,-4.899304509E-1,9.754940033E0,5.906084538E0
5.327929802E0,-5.976074338E-1,9.259625435E0,5.969494343E0
5.347168865E0,-3.870390654E-1,8.484949112E0,6.693921566E0
5.366407927E0,-3.948157281E-2,7.822137356E0,7.077969551E0
5.385646990E0,-1.950150430E-1,7.348956585E0,7.676175117E0
5.404886052E0,-6.969096065E-1,7.213163853E0,7.602595806E0
5.424125115E0,-1.096511006E0,7.308876991E0,6.973881721E0
5.443364177E0,-1.194616675E0,7.354340553E0,6.303891182E0
5.462603240E0,-1.000798106E0,7.176673412E0,5.962913990E0
5.481842302E0,-5.162515044E-1,6.931408882E0,5.851049423E0
5.501081365E0,7.836493850E-2,6.646064758E0,5.928217888E0
5.520320427E0,4.707878530E-1,6.240481377E0,6.138188362E0
5.539559490E0,4.145565331E-1,6.018547058E0,6.212365627E0
5.558798552E0,1.842473447E-1,6.079564095E0,5.938985825E0
5.578037615E0,-1.770688742E-1,6.280561447E0,5.608178139E0
5.597276677E0,-4.719842672E-1,6.491129398E0,5.408377171E0
5.616515740E0,-5.126622319E-1,6.750152588E0,5.501099110E0
5.635754802E0,-2.811566591E-1,7.012166977E0,5.532804012E0
5.654993865E0,-9.511470050E-2,7.347760201E0,5.456233978E0
5.674232927E0,6.221338734E-2,7.605587006E0,5.349753380E0
5.693471990E0,2.117647976E-1,7.706085205E0,5.488536835E0
5.712711052E0,3.517449200E-1,7.701299667E0,6.154339790E0
5.731950115E0,6.000002623E-1,7.640881062E0,7.068996429E0
5.751189177E0,7.836494446E-1,7.826324463E0,7.652844906E0
5.770428240E0,6.562315822E-1,8.154739380E0,7.366902828E0
5.789667302E0,3.290131092E-1,8.576474190E0,6.695715904E0
5.808906365E0,1.710868180E-1,9.025128365E0,6.062814236E0
5.828145427E0,1.064806059E-1,9.320044518E0,5.618347645E0
5.847384490E0,2.434697002E-1,9.352347374E0,5.913861275E0
5.866623552E0,6.484549642E-1,9.163912773E0,7.228717327E0
5.885862615E0,1.198205948E0,8.848658562E0,8.401798248E0
5.905101677E0,1.586441398E0,8.502297401E0,8.041678429E0
5.924340740E0,1.048056364E0,8.374878883E0,6.775875568E0
5.943579802E0,5.036891699E-1,8.101499557E0,6.156732559E0
5.962818865E0,5.820540786E-1,7.730013371E0,6.600003242E0
5.982057927E0,9.972088337E-1,7.226922512E0,7.353742123E0
6.001296990E0,1.105484009E0,6.844669342E0,7.709674358E0
6.020536052E0,6.723831892E-1,6.738786697E0,7.229913712E0
6.039775115E0,9.930214286E-2,6.618547440E0,6.368497372E0
6.059014177E0,-1.555334777E-1,6.540182590E0,6.034100533E0
6.078253240E0,-1.483550072E-1,6.559923172E0,5.911468506E0
6.097492302E0,-8.614161611E-2,6.637091637E0,5.863611698E0
6.116731365E0,5.982056609E-4,6.695117950E0,5.681159019E0
6.135970427E0,4.247260094E-2,6.720840454E0,5.431109428E0
6.155209490E0,-1.411765367E-1,6.654439926E0,5.201996326E0
6.174448552E0,-2.781656384E-1,6.619145870E0,5.250451088E0
6.193687615E0,-4.061816335E-1,6.626922131E0,5.456831932E0
6.212926677E0,-7.489534616E-1,6.740581512E0,5.526822090E0
6.232165740E0,-9.146564603E-1,6.859624386E0,5.515456200E0
6.251404802E0,-6.209374666E-1,7.081558704E0,5.592624664E0
6.270643865E0,-3.834498227E-1,7.301100254E0,5.776273727E0
6.289882927E0,-3.236292601E-1,7.598408222E0,5.642275810E0
6.309121990E0,-2.201396823E-1,7.903493404E0,5.341976643E0
6.328361052E0,-1.579262912E-1,8.160721779E0,5.116453171E0
6.347600115E0,-1.531406492E-1,8.389236450E0,5.116453171E0
6.366839177E0,-1.208375469E-1,8.672785759E0,5.283950806E0
6.386078240E0,-3.469592705E-2,8.914461136E0,5.628517151E0
6.405317302E0,-4.211367965E-1,9.023932457E0,5.804987907E0
6.424556365E0,-5.054838061E-1,9.019744873E0,6.093921185E0
6.443795427E0,-2.428714931E-1,8.961718559E0,6.917052269E0
6.463034490E0,-1.621137410E-1,9.177671432E0,7.745566845E0
6.482273552E0,-7.680960894E-1,1.003131104E1,7.132406235E0
6.501512615E0,-1.264008522E0,1.073659515E1,5.419145107E0
6.520751677E0,-1.456032634E0,1.038126087E1,5.587839127E0
6.539990740E0,-4.366901219E-1,9.014361382E0,6.728019238E0
6.559229802E0,7.513462901E-1,7.803592682E0,7.645068169E0
6.578468865E0,7.489534616E-1,7.168896675E0,7.564310551E0
6.597707927E0,-1.310070455E-1,6.890730858E0,7.250252724E0
6.616946990E0,-7.256234884E-1,6.889534473E0,6.627520561E0
6.636186052E0,-9.278169870E-1,6.963712215E0,5.971288681E0
6.655425115E0,-9.834501147E-1,6.954140663E0,5.621936798E0
6.674664177E0,-8.560323119E-1,6.849454880E0,5.440082073E0
6.693903240E0,-4.737788737E-1,6.778866768E0,5.341378212E0
6.713142302E0,5.204389244E-2,6.735795975E0,5.391029358E0
6.732381365E0,5.551348329E-1,6.688537598E0,5.367101192E0
6.751620427E0,8.237292171E-1,6.649653912E0,5.207380295E0
6.770859490E0,8.638089895E-1,6.556334019E0,5.170889854E0
6.790098552E0,6.981059909E-1,6.448058605E0,5.331807137E0
6.809337615E0,4.552344978E-1,6.521637917E0,5.410770416E0
6.828576677E0,1.722832322E-1,6.778866768E0,5.293521881E0
6.847815740E0,-1.333998591E-1,6.977470875E0,5.207978249E0
6.867054802E0,-3.337987661E-1,7.081558704E0,5.338985443E0
6.886293865E0,-4.055834413E-1,7.319046497E0,5.451447964E0
6.905532927E0,-5.060819983E-1,7.704290867E0,5.452046394E0
6.924771990E0,-6.000002623E-1,8.064410210E0,5.657829285E0
6.944011052E0,-4.402793646E-1,8.302495956E0,6.132804394E0
6.963250115E0,-3.445664644E-1,8.605188370E0,6.509075642E0
6.982489177E0,-3.667000830E-1,8.892925262E0,6.614359856E0
7.001728240E0,-4.564309120E-1,9.121439934E0,6.384648800E0
7.020967302E0,-4.839483798E-1,9.294321060E0,6.316453457E0
7.040206365E0,-5.383850932E-1,9.362516403E0,6.530611038E0
7.059445427E0,-6.771687865E-1,9.458230019E0,6.937391281E0
7.078684490E0,-5.910272002E-1,9.746564865E0,6.967899323E0
7.097923552E0,-2.727817893E-1,9.719047546E0,6.054439545E0
7.117162615E0,-2.506481707E-1,9.127422333E0,5.481358528E0
7.136401677E0,2.135594189E-1,8.274978638E0,5.616552830E0
7.155640740E0,9.469595551E-1,7.811369419E0,6.262016773E0
7.174879802E0,1.073180914E0,7.606184959E0,6.297909260E0
7.194118865E0,4.169493318E-1,7.548757076E0,5.864210129E0
7.213357927E0,6.580262445E-3,7.568498135E0,5.374877930E0
7.232596990E0,1.710868180E-1,7.494320393E0,5.142774105E0
7.251836052E0,5.234299302E-1,7.434499741E0,5.196612358E0
7.271075219E0,5.473581553E-1,7.497909546E0,5.026124001E0
7.290314281E0,3.523431420E-1,7.494320393E0,5.009374142E0
7.309553344E0,1.986042857E-1,7.369893551E0,5.221737385E0
7.328792406E0,2.416750938E-1,7.114459991E0,5.620141983E0
7.348031469E0,4.151547253E-1,6.973881721E0,5.708676815E0
7.367270531E0,3.978067636E-1,6.985247612E0,5.333601475E0
7.386509594E0,-1.447657645E-1,7.072585583E0,4.826323509E0
7.405748656E0,-4.923232496E-1,7.307680130E0,4.475176334E0
7.424987719E0,-5.766702294E-1,7.682755470E0,4.418346882E0
7.444226781E0,-7.980063558E-1,7.989634991E0,4.412963390E0
7.463465844E0,-7.734799385E-1,8.237292290E0,4.302295208E0
7.482704906E0,-2.919243574E-1,8.232506752E0,4.756931305E0
7.501943969E0,-3.589233849E-3,8.100900650E0,5.474180222E0
7.521183031E0,-1.543370634E-1,8.175078392E0,5.941977024E0
7.540422094E0,-6.305087805E-1,8.557929993E0,5.764309883E0
7.559661156E0,-9.361918569E-1,8.928817749E0,5.275575638E0
7.578900219E0,-1.070189953E0,9.014361382E0,5.402993679E0
7.598139281E0,-9.595218897E-1,8.846863747E0,6.001797199E0
7.617378344E0,-8.883354068E-1,8.884550095E0,6.580860615E0
7.636617406E0,-1.298106313E0,9.850652695E0,6.563512325E0
7.655856469E0,-1.284945726E0,1.094237804E1,4.671986103E0
7.675095531E0,-1.377069473E0,1.094716358E1,4.575077057E0
7.694334594E0,-8.554341197E-1,9.536594391E0,5.843272686E0
7.713573656E0,4.642075896E-1,7.913064480E0,7.094718933E0
7.732812719E0,1.007976532E0,7.191030025E0,8.157731056E0
7.752051781E0,-3.050848842E-1,7.293921471E0,7.458428383E0
7.771290844E0,-1.724028707E0,7.502695560E0,6.235097408E0
7.790529906E0,-2.260619164E0,7.355536938E0,5.943771362E0
7.809768969E0,-1.668395638E0,7.051648140E0,6.227919102E0
7.829008031E0,-8.685946465E-1,6.751348972E0,6.187241077E0
7.848247094E0,-3.505485058E-1,6.598806858E0,5.821737289E0
7.867486156E0,-4.845465720E-2,6.530013084E0,5.510072231E0
7.886725219E0,1.286142170E-1,6.561119556E0,5.333003521E0
7.905964281E0,2.045863420E-1,6.412764549E0,5.392824173E0
7.925203344E0,2.949153781E-1,6.279364586E0,5.684748173E0
7.944442406E0,-7.776673418E-3,6.202196121E0,6.084349632E0
7.963681469E0,-4.121637046E-1,6.346961975E0,6.092126369E0
7.982920531E0,-6.149554253E-1,6.664011002E0,5.905486107E0
8.002159594E0,-6.622136831E-1,6.993622303E0,5.686542988E0
8.021398656E0,-6.197410822E-1,7.396812916E0,5.523830891E0
8.040637719E0,-4.468596280E-1,7.554739475E0,5.691926956E0
8.059876781E0,-3.738785386E-1,7.577471256E0,6.208178520E0
8.079115844E0,-3.762713671E-1,7.671987534E0,6.941578388E0
8.098354906E0,-4.085744619E-1,7.928019524E0,7.223931789E0
8.117593969E0,-4.701896608E-1,8.402995110E0,6.829713821E0
8.136833135E0,-4.791627228E-1,8.965906143E0,6.268597126E0
8.156072198E0,-4.815555513E-1,9.343374252E0,5.995815277E0
8.175311260E0,-3.457628787E-1,9.421140671E0,6.362515450E0
8.194550323E0,-7.238288224E-2,9.595816612E0,7.115057945E0
8.213789385E0,5.479564071E-1,9.618548393E0,6.950551510E0
8.233028448E0,3.840480447E-1,9.282955170E0,6.142375946E0
8.252267510E0,5.024927482E-2,8.593822479E0,5.946762562E0
8.271506573E0,3.349951804E-1,7.705487251E0,6.379863262E0
8.290745635E0,6.059823632E-1,7.274778843E0,7.307082176E0
8.309984698E0,5.533402562E-1,7.345367432E0,7.130611420E0
8.329223760E0,-5.024927482E-2,7.498507977E0,6.119045734E0
8.348462823E0,-3.720839322E-1,7.648657799E0,5.076971531E0
8.367701885E0,-2.374876440E-1,7.565506935E0,4.828716278E0
8.386940948E0,2.518445849E-1,7.391428947E0,5.065605640E0
8.406180010E0,5.419743061E-1,7.144968510E0,5.699703693E0
8.425419073E0,5.862415433E-1,6.939784050E0,6.221937180E0
8.444658135E0,2.590230405E-1,6.885347366E0,6.445067883E0
8.463897198E0,-1.764706671E-1,6.831508636E0,6.287141323E0
8.483136260E0,-5.306084156E-1,6.802196503E0,6.020341873E0
8.502375323E0,-6.496513486E-1,6.832705021E0,5.891129494E0
8.521614385E0,-6.137589812E-1,6.962515831E0,5.882156372E0
8.540853448E0,-6.251249313E-1,7.242475986E0,5.619544029E0
8.560092510E0,-6.484549642E-1,7.569694519E0,5.322235584E0
8.579331573E0,-6.275177598E-1,7.794021606E0,5.042873859E0
8.598570635E0,-4.336991012E-1,7.712067604E0,5.045266628E0
8.617809698E0,-1.004985496E-1,7.570890903E0,5.635097504E0
8.637048760E0,6.580262631E-2,7.651648521E0,6.156134605E0
8.656287823E0,-2.398804724E-1,8.044670105E0,5.702096462E0
8.675526885E0,-6.861419082E-1,8.371888161E0,5.246263504E0
8.694765948E0,-6.903293133E-1,8.481958389E0,5.380261898E0
8.714005010E0,-3.284149170E-1,8.316853523E0,6.092724800E0
8.733244073E0,1.118644550E-1,8.199604988E0,6.856035233E0
8.752483135E0,3.870390654E-1,8.333602905E0,7.109674454E0
8.771722198E0,-3.248256743E-1,9.135796547E0,6.602396011E0
8.790961260E0,-1.430309772E0,9.975079536E0,5.118247509E0
8.810200427E0,-2.040479422E0,1.021017456E1,4.417748928E0
8.829439490E0,-1.213161111E0,9.296713829E0,5.788836002E0
8.848678552E0,2.117647976E-1,7.855636597E0,7.520641804E0
8.867917615E0,1.082752228E0,7.098906517E0,8.625527382E0
8.887156677E0,3.942175210E-1,7.138388157E0,8.190033913E0
8.906395740E0,-9.804590940E-1,7.560721397E0,6.757929325E0
8.925634802E0,-1.740180254E0,7.859824181E0,5.586044312E0
8.944873865E0,-1.533799291E0,7.713263988E0,5.423930645E0
8.964112927E0,-1.018146038E0,7.310073376E0,5.443671703E0
8.983351990E0,-7.507480979E-1,7.004988194E0,5.377869129E0
9.002591052E0,-6.879364848E-1,6.902695179E0,5.204389095E0
9.021830115E0,-6.957131624E-1,6.770491600E0,5.420939922E0
9.041069177E0,-5.401797295E-1,6.589235306E0,5.784050465E0
9.060308240E0,-3.702892959E-1,6.457031727E0,6.154938221E0
9.079547302E0,-3.487538993E-1,6.393023968E0,6.409175396E0
9.098786365E0,-3.619144261E-1,6.443871498E0,6.433701992E0
9.118025427E0,-7.208378315E-1,6.535995007E0,6.448657036E0
9.137264490E0,-8.823533654E-1,6.830312252E0,6.553941250E0
9.156503552E0,-8.679963946E-1,7.123433113E0,6.531209469E0
9.175742615E0,-7.788637877E-1,7.335795879E0,6.362515450E0
9.194981677E0,-8.542376757E-1,7.326822758E0,6.478567123E0
9.214220740E0,-1.008574724E0,7.363313675E0,6.673582554E0
9.233459802E0,-1.350150228E0,7.537989616E0,6.882954121E0
9.252698865E0,-1.511665702E0,7.664210796E0,7.013363361E0
9.271938031E0,-1.243669510E0,7.718049526E0,7.093522549E0
9.291177094E0,-9.601200819E-1,7.802396297E0,7.009175777E0
9.310416156E0,-1.120439172E0,7.934001446E0,6.744768620E0
9.329655219E0,-1.614557028E0,8.681160927E0,6.399604321E0
9.348894281E0,-1.490728498E0,9.306285858E0,5.040481091E0
9.368133344E0,-1.476371527E0,8.968298912E0,4.583451748E0
9.387372406E0,-9.056833982E-1,7.387839794E0,6.458826542E0
9.406611469E0,-1.250249892E-1,6.425326824E0,8.539385796E0
9.425850531E0,-3.888336942E-2,6.760920525E0,8.696115494E0
9.445089594E0,-1.000199914E0,7.524230957E0,7.205985546E0
9.464328656E0,-1.608574986E0,7.995616913E0,6.000600815E0
9.483567719E0,-1.579861164E0,7.941180229E0,5.542973518E0
9.502806781E0,-1.068395257E0,7.696514130E0,5.834300041E0
9.522045844E0,-6.406782866E-1,7.502097130E0,6.826124668E0
9.541284906E0,-6.693921089E-1,7.431509018E0,7.659425259E0
9.560523969E0,-9.266205430E-1,7.448258877E0,7.917850018E0
9.579763031E0,-1.104287624E0,7.425527096E0,7.811369419E0
9.599002094E0,-1.016949654E0,7.390232563E0,7.348358154E0
9.618241156E0,-9.445667267E-1,7.310671329E0,6.844669342E0
9.637480219E0,-1.058824062E0,7.217351437E0,6.513263226E0
9.656719281E0,-1.319641709E0,7.071389198E0,6.313462734E0
9.675958344E0,-1.442872047E0,6.921837807E0,6.445665836E0
9.695197406E0,-1.380658627E0,6.732804775E0,6.824330330E0
9.714436573E0,-1.205982566E0,6.451049805E0,6.995417118E0
9.733675635E0,-1.033699393E0,6.229713917E0,7.079165936E0
9.752914698E0,-9.224331379E-1,6.180660725E0,6.907480717E0
9.772153760E0,-1.091127157E0,6.269793510E0,6.899703979E0
9.791392823E0,-1.198804140E0,6.512664795E0,6.820142746E0
9.810631885E0,-9.882357717E-1,6.655037880E0,7.141379356E0
9.829870948E0,-8.931210637E-1,6.710072994E0,7.554739475E0
9.849110010E0,-9.696913958E-1,6.629314899E0,7.399804115E0
9.868349073E0,-9.032905698E-1,6.633502483E0,7.372884750E0
9.887588135E0,-8.380861282E-1,6.575476646E0,7.401598454E0
9.906827198E0,-8.997012973E-1,6.544968128E0,7.348956585E0
9.926066260E0,-1.025324464E0,6.653243542E0,7.271788120E0
9.945305323E0,-1.310070395E0,6.692126751E0,7.210172653E0
9.964544385E0,-1.520040631E0,6.676573277E0,7.281957626E0
9.983783448E0,-1.602592945E0,6.753143787E0,7.283154011E0
1.000302251E1,-1.530210137E0,6.835097790E0,7.265207767E0
1.002226157E1,-1.253240824E0,6.867401123E0,7.451848030E0
1.004150064E1,-1.069591761E0,6.859025955E0,7.529614449E0
1.006073970E1,-1.127617717E0,6.941578388E0,7.420741081E0
1.007997876E1,-1.264008522E0,6.994220734E0,7.222136974E0
1.009921782E1,-1.452443361E0,7.015157700E0,7.023532867E0
1.011845699E1,-1.570888042E0,7.058228493E0,7.048657417E0
1.013769605E1,-1.601994753E0,7.102495670E0,7.001997471E0
1.015693512E1,-1.752144337E0,7.060621262E0,7.069594383E0
1.017617418E1,-1.914258122E0,7.006184578E0,7.209574699E0
1.019541324E1,-1.959721804E0,6.936792850E0,7.383054256E0
1.021465230E1,-1.840678811E0,6.922435760E0,7.302296638E0
1.023389136E1,-1.773081541E0,6.934400082E0,7.314858913E0
1.025313043E1,-1.806581140E0,6.938587666E0,7.301100254E0
1.027236949E1,-1.634896040E0,6.964908600E0,7.211369038E0
1.029160855E1,-1.333998680E0,7.053442955E0,7.073183537E0
1.031084762E1,-9.678967595E-1,7.152146816E0,6.974479675E0
1.033008668E1,-8.350951076E-1,7.223333359E0,7.030711174E0
1.034932574E1,-7.441678643E-1,7.420143127E0,6.853044033E0
1.036856480E1,-5.898307562E-1,7.725826263E0,6.683752060E0
1.038780386E1,-3.242274821E-1,8.127820015E0,6.497111797E0
1.040704293E1,-1.196411345E-2,8.334200859E0,6.045466423E0
1.042628199E1,2.327020019E-1,8.091329575E0,5.691926956E0
1.044552105E1,4.486542344E-1,7.683353424E0,5.952146530E0
1.046476012E1,7.244270444E-1,7.384250641E0,6.607181549E0
1.048399918E1,8.129615188E-1,7.337590694E0,6.954140663E0
1.050323834E1,7.196413875E-1,7.353742123E0,6.781857491E0
1.052247741E1,4.749752879E-1,7.339385033E0,6.507879257E0
1.054171647E1,3.780659735E-1,7.246663570E0,6.111268997E0
1.056095553E1,4.384847581E-1,7.288537979E0,5.841478348E0
1.058019459E1,7.310073376E-1,7.332206726E0,5.952146530E0
1.059943366E1,9.439685345E-1,7.411767960E0,6.099903107E0
1.061867272E1,8.907282352E-1,7.450053215E0,5.903093338E0
1.063791178E1,6.813562512E-1,7.379465103E0,5.848058701E0
1.065715084E1,5.718846321E-1,7.203592777E0,6.038886070E0
1.067638991E1,4.689932466E-1,7.024729252E0,6.348158360E0
1.069562897E1,3.206382394E-1,6.928418159E0,6.518048763E0
1.071486803E1,3.535395563E-1,7.012166977E0,6.475576401E0
1.073410709E1,4.079762697E-1,7.167101860E0,6.347560406E0
1.075334616E1,6.299105883E-1,7.369295597E0,6.174678802E0
1.077258522E1,8.697910309E-1,7.501499176E0,6.063412666E0
1.079182428E1,7.704889178E-1,7.628916740E0,5.834300041E0
1.081106334E1,5.964110494E-1,7.753942013E0,5.611168861E0
1.083030241E1,4.791627228E-1,7.840083599E0,5.569892883E0
1.084954147E1,4.528416991E-1,7.858627796E0,5.818746567E0
1.086878053E1,5.012963414E-1,7.835896015E0,6.134599209E0
1.088801970E1,5.347958803E-1,7.952546120E0,6.308676720E0
1.090725876E1,5.246263742E-1,8.036892891E0,6.468996048E0
1.092649782E1,4.025924206E-1,8.167302132E0,6.404987812E0
1.094573688E1,3.547359705E-1,8.390432358E0,6.325426579E0
1.096497595E1,3.756731451E-1,8.510073662E0,6.523432732E0
1.098421501E1,4.749752879E-1,8.592027664E0,6.701099873E0
1.100345407E1,5.467599630E-1,8.554341316E0,6.948158741E0
1.102269314E1,8.261220455E-1,8.619544983E0,7.477570534E0
1.104193220E1,5.288137794E-1,9.236295700E0,6.979265213E0
1.106117126E1,-3.170489967E-1,9.765707016E0,5.209773064E0
1.108041032E1,-7.268198729E-1,9.946963310E0,4.648057938E0
1.109964939E1,1.519442350E-1,8.900103569E0,6.045466423E0
1.111888845E1,1.078564763E0,7.366304398E0,8.253443718E0
1.113812751E1,1.234696507E0,6.544369698E0,9.259027481E0
1.115736657E1,1.076770201E-1,6.843472958E0,8.447860718E0
1.117660564E1,-1.212562919E0,7.127022266E0,7.056434155E0
1.119584470E1,-1.967498422E0,7.091129780E0,6.413960934E0
1.121508376E1,-1.744965911E0,6.863811970E0,6.291328907E0
1.123432282E1,-1.060618639E0,6.708278179E0,6.454041004E0
1.125356199E1,-5.892325640E-1,6.508477688E0,6.461219311E0
1.127280105E1,-3.906283081E-1,6.354738712E0,6.521637917E0
1.129204012E1,-4.456632137E-1,6.324828625E0,6.624529362E0
1.131127918E1,-4.618147612E-1,6.524629116E0,6.294320107E0
1.133051824E1,-5.766702294E-1,6.686144829E0,5.675177097E0
1.134975730E1,-5.742774606E-1,6.714260101E0,5.264808178E0
1.136899637E1,-3.427718580E-1,6.671787739E0,5.347958565E0
1.138823543E1,2.991028363E-3,6.745965004E0,5.366502762E0
1.140747449E1,2.213360928E-2,7.000801086E0,5.056034088E0
1.142671355E1,-1.214357466E-1,7.234101295E0,4.977071285E0
1.144595262E1,-1.674975827E-2,7.405786037E0,5.132006168E0
1.146519168E1,2.165504545E-1,7.573283672E0,5.374877930E0
1.148443074E1,2.398804724E-1,7.719843864E0,5.839085579E0
1.150366980E1,2.829512656E-1,7.869993687E0,6.156134605E0
1.152290887E1,3.978067636E-1,8.097909927E0,6.326025009E0
1.154214793E1,4.845465720E-1,8.367102623E0,6.210571289E0
1.156138699E1,4.971089065E-1,8.538787842E0,6.141777515E0
1.158062605E1,6.514459848E-1,8.644071579E0,6.194419384E0
1.159986522E1,8.446664214E-1,8.617751122E0,6.799803734E0
1.161910428E1,1.109073281E0,8.800203323E0,7.618747234E0
1.163834334E1,1.134796143E0,9.514460564E0,7.422535896E0
1.165758241E1,8.596215248E-1,9.707681656E0,5.048257351E0
1.167682147E1,-1.974078640E-2,9.454042435E0,4.034897327E0
1.169606053E1,-1.064806059E-1,8.394021988E0,4.559523582E0
1.171529959E1,8.422735929E-1,7.450053215E0,6.037091732E0
1.173453866E1,1.342971683E0,7.046264648E0,6.916453838E0
1.175377772E1,7.980063558E-1,7.250850677E0,6.299105644E0
1.177301678E1,3.649054468E-2,7.427919865E0,5.008776188E0
1.179225584E1,-2.656033039E-1,7.487740040E0,4.464408875E0
1.181149491E1,1.441675574E-1,7.362715244E0,4.759324074E0
1.183073397E1,9.308080077E-1,7.261618614E0,5.307878971E0
1.184997303E1,1.432702541E0,7.317251682E0,5.665606022E0
1.186921209E1,1.164108157E0,7.454838753E0,5.653043270E0
1.188845116E1,6.496513486E-1,7.399205685E0,5.298307419E0
1.190769032E1,6.669993401E-1,7.308876991E0,5.228317261E0
1.192692939E1,8.967102766E-1,7.219145775E0,5.359324455E0
1.194616845E1,8.213363886E-1,7.176673412E0,5.478367329E0
1.196540751E1,5.270192027E-1,7.227520943E0,5.462814331E0
1.198464657E1,1.866401732E-1,7.398009300E0,5.231906891E0
1.200388564E1,-4.785645287E-3,7.665407181E0,4.998606682E0
1.202312470E1,1.728814393E-1,7.814958572E0,4.883750916E0
1.204236376E1,4.923232496E-1,7.852047443E0,5.111069202E0
1.206160282E1,6.520441771E-1,7.859225750E0,5.441876888E0
1.208084188E1,3.726821244E-1,8.118248940E0,5.514857769E0
1.210008095E1,-1.333998591E-1,8.536993027E0,5.402395248E0
1.211932001E1,-3.708875179E-1,8.800203323E0,5.671587944E0
1.213855907E1,8.255238086E-2,8.767302513E0,6.488736629E0
1.215779814E1,6.538388133E-1,8.531609535E0,7.143772125E0
1.217703720E1,9.714859724E-1,8.379066467E0,7.349554539E0
1.219627626E1,5.503492355E-1,8.696713448E0,7.422535896E0
1.221551543E1,-3.631108403E-1,9.748359680E0,6.627520561E0
1.223475449E1,-5.228317380E-1,1.046800041E1,4.901697159E0
1.225399355E1,-5.222335458E-1,1.017069244E1,4.736592293E0
1.227323262E1,1.028913707E-1,8.451449394E0,6.251847267E0
1.229247168E1,9.960124493E-1,7.392625332E0,7.897511005E0
1.231171074E1,1.016949654E0,7.623532772E0,7.893323898E0
1.233094980E1,-2.650051117E-1,8.109873772E0,6.850052834E0
1.235018887E1,-1.024726272E0,8.237292290E0,6.168696880E0
1.236942793E1,-7.244270444E-1,7.968099594E0,6.149554253E0
1.238866699E1,-7.597211748E-2,7.503891945E0,6.278168201E0
1.240790605E1,2.775674164E-1,7.025925636E0,6.412166595E0
1.242714512E1,4.935196638E-1,6.640082836E0,6.598806858E0
1.244638418E1,5.581258535E-1,6.338587284E0,6.605386734E0
1.246562324E1,5.832505226E-1,6.211169243E0,6.372684956E0
1.248486230E1,5.258227587E-1,6.162116528E0,5.877370834E0
1.250410136E1,4.917250574E-1,6.235695839E0,5.497509956E0
1.252334043E1,4.223332107E-1,6.342176437E0,5.093122959E0
1.254257959E1,4.289134443E-1,6.546164513E0,4.813760757E0
1.256181866E1,3.996013701E-1,6.799803734E0,4.562514782E0
1.258105772E1,4.558327198E-1,7.258627415E0,4.512863636E0
1.260029678E1,3.720839322E-1,7.590631485E0,4.669593334E0
1.261953584E1,2.075773627E-1,7.754539967E0,4.948357105E0
1.263877491E1,2.518445849E-1,7.765307903E0,5.727221012E0
1.265801397E1,5.018945336E-1,7.844270706E0,6.661618233E0
1.267725303E1,6.652047038E-1,8.138587952E0,7.013363361E0
1.269649209E1,6.466603279E-1,8.588438988E0,6.705287457E0
1.271573116E1,3.894318938E-1,9.000003815E0,6.127420425E0
1.273497022E1,3.936193287E-1,9.347561836E0,5.938985825E0
1.275420928E1,5.922235847E-1,9.717850685E0,6.313462734E0
1.277344834E1,8.135597110E-1,9.985847473E0,6.324828625E0
1.279268741E1,1.052842021E0,9.731011391E0,5.705087185E0
1.281192647E1,1.250249863E0,9.097511292E0,5.842674732E0
1.283116564E1,1.299302697E0,7.945367813E0,7.317251682E0
1.285040470E1,1.429113269E0,6.975676060E0,8.405985832E0
1.286964376E1,1.307079315E0,6.467799664E0,8.890532494E0
1.288888282E1,7.022934556E-1,6.573083878E0,8.294719696E0
1.290812189E1,1.292124242E-1,6.921837807E0,6.491727829E0
1.292736095E1,1.429711580E-1,7.094120979E0,5.310271740E0
1.294660001E1,7.124629617E-1,7.028916359E0,5.145765305E0
1.296583907E1,1.418345571E0,6.809973240E0,5.689534187E0
1.298507814E1,1.724028707E0,6.617949009E0,6.068796635E0
1.300431720E1,1.349551916E0,6.635297298E0,5.961119175E0
1.302355626E1,5.401797295E-1,6.635297298E0,5.939583778E0
1.304279532E1,-6.819544733E-2,6.561119556E0,5.859424591E0
1.306203438E1,-3.194418252E-1,6.480959892E0,5.880361557E0
1.308127345E1,-3.942175210E-1,6.468397617E0,6.015556335E0
1.310051251E1,-4.295116663E-1,6.586842537E0,5.937789440E0
1.311975157E1,-5.934200287E-1,6.912266254E0,5.765506268E0
1.313899074E1,-7.016952634E-1,7.267600536E0,5.558526993E0
1.315822980E1,-8.422735929E-1,7.587640762E0,5.542375565E0
1.317746887E1,-7.322037220E-1,7.730611801E0,5.726024628E0
1.319670793E1,-3.469592929E-1,7.731209755E0,6.257231236E0
1.321594699E1,-3.326023519E-1,7.679764271E0,6.535995007E0
1.323518605E1,-6.909275651E-1,7.786843300E0,6.529414654E0
1.325442512E1,-8.787640929E-1,8.126624107E0,6.465406895E0
1.327366418E1,-8.895317912E-1,8.415556908E0,6.632306099E0
1.329290324E1,-7.507480979E-1,8.446663857E0,6.964310169E0
1.331214230E1,-4.097708762E-1,8.356932640E0,7.448856831E0
1.333138136E1,-3.529413417E-2,8.423334122E0,7.793423176E0
1.335062043E1,-4.953143001E-1,9.153742790E0,7.459026337E0
1.336985949E1,-1.194018483E0,9.815358162E0,5.545964718E0
1.338909855E1,-1.231107235E0,9.969695091E0,4.536791801E0
1.340833762E1,-6.789634228E-1,9.242277145E0,5.479563713E0
1.342757668E1,1.561316848E-1,8.081758499E0,7.034300327E0
1.344681574E1,7.076773047E-1,7.420741081E0,7.953144073E0
1.346605491E1,1.322034448E-1,7.394420147E0,7.909475327E0
1.348529397E1,-7.459624410E-1,7.479365349E0,7.019943237E0
1.350453303E1,-1.112064362E0,7.376473904E0,6.405586243E0
1.352377209E1,-1.065404296E0,7.036095142E0,6.277570248E0
1.354301116E1,-6.687939167E-1,6.680162430E0,6.214160442E0
1.356225022E1,-2.883351147E-1,6.415157318E0,6.160920143E0
1.358148928E1,-1.423729509E-1,6.156732559E0,6.058028698E0
1.360072834E1,1.196411345E-2,5.880361557E0,6.174080849E0
1.361996741E1,-6.699903309E-2,5.721837044E0,6.230910301E0
1.363920647E1,-3.278166950E-1,5.718247890E0,6.081956863E0
1.365844553E1,-3.433700502E-1,5.873781204E0,5.886941910E0
1.367768459E1,-3.577269912E-1,6.107081413E0,5.730212212E0
1.369692366E1,-4.660021961E-1,6.306882381E0,5.648856163E0
1.371616272E1,-6.017948985E-1,6.604190350E0,5.883352757E0
1.373540178E1,-5.994020700E-1,7.109076023E0,5.971887112E0
1.375464084E1,-5.611169338E-1,7.524230957E0,5.778666496E0
1.377388001E1,-5.437689424E-1,7.698906898E0,5.811567783E0
1.379311907E1,-5.706881881E-1,7.831110477E0,6.250052929E0
1.381235814E1,-3.726821244E-1,8.039883614E0,6.787839413E0
1.383159720E1,-4.905286431E-2,8.371888161E0,7.263412952E0
1.385083626E1,6.819544733E-2,8.676374435E0,7.182655334E0
1.387007532E1,-1.938186288E-1,8.879166603E0,6.574280262E0
1.388931438E1,-2.955136001E-1,9.041280746E0,6.098706722E0
1.390855345E1,-3.122633696E-1,9.122636795E0,5.979065418E0
1.392779251E1,-4.534398913E-1,9.059226990E0,6.310471535E0
1.394703157E1,-4.833501875E-1,9.173483849E0,7.130611420E0
1.396627064E1,-4.342973232E-1,9.428318977E0,6.799205780E0
1.398550970E1,-5.072783828E-1,9.414560318E0,5.426323414E0
1.400474876E1,-6.496513486E-1,8.682954788E0,5.024927616E0
1.402398782E1,-3.481557071E-1,7.450053215E0,6.005984783E0
1.404322689E1,-1.447657645E-1,6.853044033E0,7.311867714E0
1.406246595E1,-1.304088384E-1,6.880561352E0,7.407580853E0
1.408170512E1,-5.479564071E-1,7.065407276E0,6.483353138E0
1.410094418E1,-9.487541914E-1,7.116254330E0,5.664409637E0
1.412018324E1,-8.691928387E-1,7.030112743E0,5.261816978E0
1.413942230E1,-2.697907388E-1,6.919445038E0,5.478965759E0
1.415866136E1,2.147558331E-1,6.817151546E0,5.938387394E0
1.417790043E1,1.836491376E-1,6.785446644E0,5.861218929E0
1.419713949E1,-3.050848842E-1,6.807580471E0,5.488536835E0
1.421637855E1,-5.682953596E-1,6.914061069E0,5.182853699E0
1.423561762E1,-5.808576941E-1,7.000202656E0,5.057230473E0
1.425485668E1,-5.706881881E-1,7.023532867E0,5.052444935E0
1.427409574E1,-7.250252366E-1,7.018746853E0,5.320441246E0
1.429333480E1,-7.399803996E-1,7.112665176E0,5.730810165E0
1.431257387E1,-7.022934556E-1,7.299305439E0,6.008377552E0
1.433181293E1,-6.352944374E-1,7.468597889E0,5.737390518E0
1.435105199E1,-4.325026870E-1,7.509275436E0,5.638686657E0
1.437029116E1,-2.991028428E-1,7.517052174E0,5.751149178E0
1.438953022E1,-3.044866920E-1,7.671389580E0,5.907878876E0
1.440876928E1,-4.893322289E-1,7.975277901E0,5.959324837E0
1.442800834E1,-7.920243144E-1,8.382656097E0,6.032904148E0
1.444724741E1,-9.547362328E-1,8.519644737E0,6.164509296E0
1.446648647E1,-7.710871100E-1,8.546564102E0,6.424728870E0
1.448572553E1,-4.983053207E-1,8.485547066E0,6.920042992E0
1.450496459E1,-4.073780477E-1,8.888139725E0,7.533204079E0
1.452420366E1,-7.854440212E-1,1.002772141E1,6.714260101E0
1.454344272E1,-1.123430252E0,1.033699417E1,5.823532104E0
1.456268178E1,-1.158126116E0,9.346963882E0,6.444469452E0
1.458192084E1,-4.893322289E-1,7.940581799E0,7.566105366E0
1.460115991E1,1.615155302E-2,7.011568546E0,8.383852005E0
1.462039897E1,-4.707878530E-1,7.071389198E0,7.715656757E0
1.463963803E1,-1.465603828E0,7.324429989E0,6.472585201E0
1.465887720E1,-1.874178290E0,7.336394310E0,5.990431309E0
1.467811626E1,-1.554736495E0,6.969694138E0,6.480361938E0
1.469735532E1,-8.871390224E-1,6.476772785E0,6.948757172E0
1.471659438E1,-1.860419661E-1,6.217749596E0,7.004988194E0
1.473583345E1,3.343969584E-1,6.153143406E0,6.745367050E0
1.475507251E1,5.599204898E-1,6.163312912E0,6.470790863E0
1.477431157E1,6.693921089E-1,6.180660725E0,6.145366669E0
1.479355064E1,4.630111754E-1,6.236892223E0,5.608178139E0
1.481278970E1,1.734796464E-1,6.367899418E0,5.164907455E0
1.483202876E1,-2.093719877E-2,6.454041004E0,5.097310543E0
1.485126782E1,-1.866401732E-1,6.606583118E0,5.142774105E0
1.487050689E1,-1.902294010E-1,7.045666218E0,5.030909538E0
1.488974605E1,-3.122633696E-1,7.514659405E0,4.816751957E0
1.490898512E1,-4.923232496E-1,7.980063438E0,4.608576298E0
1.492822418E1,-5.174478889E-1,8.129614830E0,5.074578762E0
1.494746324E1,-1.836491376E-1,8.116454124E0,6.363711834E0
1.496670230E1,6.699903309E-2,8.191229820E0,7.304689407E0
1.498594136E1,7.178467698E-3,8.458029747E0,7.571488857E0
1.500518043E1,-2.165504545E-1,8.730812073E0,7.466204643E0
1.502441949E1,-2.787638307E-1,8.796614647E0,7.551149845E0
1.504365855E1,-8.733802289E-2,8.697312355E0,7.986045361E0
1.506289782E1,7.597211748E-2,8.752944946E0,8.483154297E0
1.508213668E1,3.433700502E-1,9.352945328E0,7.998009682E0
1.510137584E1,4.480560422E-1,9.770493507E0,6.422336102E0
1.512061491E1,-4.785645381E-2,9.206983566E0,5.541777134E0
1.513985397E1,8.913264424E-2,7.890930653E0,6.569494724E0
1.515909303E1,6.454638839E-1,6.936792850E0,8.032107353E0
1.517833209E1,6.514459848E-1,6.723831654E0,8.307880402E0
1.519757116E1,8.374879509E-2,6.921837807E0,7.265207767E0
1.521681022E1,-4.534398913E-1,6.990033150E0,6.022734642E0
1.523604928E1,-4.187439680E-1,6.757331371E0,5.593821049E0
1.525528834E1,6.460621208E-2,6.503692150E0,5.511867046E0
1.527452741E1,5.042873621E-1,6.443871498E0,5.565107346E0
1.529376647E1,4.307080805E-1,6.508477688E0,5.172684193E0
1.531300564E1,-1.597209126E-1,6.630511761E0,4.697110653E0
1.533224470E1,-7.316055298E-1,6.709474564E0,4.392624378E0
1.535148376E1,-8.530412912E-1,6.698108673E0,4.820939541E0
1.537072282E1,-6.837490797E-1,6.606583118E0,5.425725460E0
1.538996189E1,-6.921239495E-1,6.551548481E0,5.779862881E0
1.540920095E1,-8.973084688E-1,6.753143787E0,5.660222054E0
1.542844001E1,-1.013360381E0,7.156334400E0,5.481358528E0
1.544767907E1,-8.781659007E-1,7.521838188E0,5.347958565E0
1.546691814E1,-7.058826685E-1,7.785048485E0,5.243272781E0
1.548615730E1,-4.109672904E-1,7.844869137E0,5.324030399E0
1.550539637E1,-2.751746178E-1,7.895716667E0,5.979663849E0
1.552463543E1,-3.535395563E-1,8.143971443E0,6.413960934E0
1.554387449E1,-5.449653864E-1,8.649456024E0,6.251249313E0
1.556311355E1,-6.023930907E-1,9.068199158E0,6.215356827E0
1.558235262E1,-3.613162339E-1,9.141778946E0,6.532405853E0
1.560159168E1,1.417747438E-1,8.910273552E0,7.314858913E0
1.562083074E1,4.929214716E-1,8.776275635E0,7.867600918E0
1.564006980E1,-1.375873089E-1,9.458230019E0,7.523632526E0
1.565930897E1,-9.942178130E-1,1.030768204E1,5.574678421E0
1.567854803E1,-1.546361685E0,1.041476059E1,4.412963390E0
1.569778709E1,-8.841479421E-1,9.026325226E0,5.931209087E0
1.571702616E1,2.835494876E-1,7.668398380E0,7.874779224E0
1.573626522E1,9.020941257E-1,7.452445984E0,8.248059273E0
1.575550428E1,-1.375873014E-2,8.098507881E0,6.577271461E0
1.577474334E1,-1.187438250E0,8.301898003E0,5.135595798E0
1.579398241E1,-1.442872047E0,7.960322857E0,4.997410297E0
1.581322147E1,-6.921239495E-1,7.359724045E0,5.732604980E0
1.583246064E1,-1.208375469E-1,6.813562393E0,6.204588890E0
1.585169970E1,-5.862415582E-2,6.481558323E0,6.017949104E0
1.587093876E1,-2.315055877E-1,6.305685997E0,5.664409637E0
1.589017782E1,-3.601198196E-1,6.232106686E0,5.341378212E0
1.590941688E1,-3.900300860E-1,6.267400742E0,5.066802025E0
1.592865595E1,-2.578266263E-1,6.416353703E0,4.766502857E0
1.594789501E1,-2.482553422E-1,6.515655994E0,4.682754040E0
1.596713407E1,-4.115654826E-1,6.656832695E0,4.716253281E0
1.598637324E1,-5.629115105E-1,6.974479675E0,4.751547337E0
1.600561230E1,-4.283152521E-1,7.371089935E0,4.834698200E0
1.602485136E1,-3.918247223E-1,7.759325504E0,5.012365341E0
1.604409043E1,-4.845465720E-1,7.822137356E0,5.326423168E0
1.606332949E1,-2.991028428E-1,7.792226791E0,6.019743443E0
1.608256855E1,-6.221338734E-2,7.971090317E0,6.744170666E0
1.610180762E1,4.845465720E-2,8.449654579E0,6.647859573E0
1.612104668E1,-4.785645381E-2,8.988637924E0,5.900700569E0
1.614028584E1,-1.100698411E-1,9.347561836E0,5.403591633E0
1.615952491E1,1.238285750E-1,9.376873970E0,5.587240696E0
1.617876397E1,1.591227055E-1,9.399007797E0,6.250650883E0
1.619800303E1,-8.793623000E-2,9.753743172E0,6.908677101E0
1.621724209E1,2.213360928E-2,1.006899738E1,6.247061729E0
1.623648116E1,-1.663011760E-1,9.754341125E0,5.462814331E0
1.625572022E1,-1.381855011E-1,8.889934540E0,5.854638577E0
1.627495939E1,3.583251834E-1,7.807780266E0,6.812964439E0
1.629419845E1,7.507480979E-1,6.943373203E0,7.688737392E0
1.631343751E1,6.921239495E-1,6.937391281E0,7.814360619E0
1.633267657E1,2.817548811E-1,7.222136974E0,6.652047157E0
1.635191564E1,-1.387837082E-1,7.333403111E0,5.619544029E0
1.637115470E1,-8.973085321E-3,7.045666218E0,5.488536835E0
1.639039376E1,6.263213158E-1,6.737590313E0,6.028716564E0
1.640963282E1,1.009771109E0,6.646064758E0,6.190232277E0
1.642887188E1,5.820540786E-1,6.815955162E0,5.668596745E0
1.644811105E1,-4.785645287E-3,6.978667259E0,5.029115200E0
1.646735012E1,-2.985046208E-1,7.038487911E0,4.839483738E0
1.648658918E1,-2.021935135E-1,6.870990276E0,5.101497650E0
1.650582824E1,2.333002165E-2,6.814758778E0,5.600999832E0
1.652506730E1,-5.264209956E-2,6.932007313E0,5.659025669E0
1.654430636E1,-3.583251834E-1,7.201797962E0,5.379663467E0
1.656354543E1,-5.479564071E-1,7.424330235E0,5.365904808E0
1.658278459E1,-6.089733839E-1,7.597810268E0,5.521438122E0
1.660202366E1,-5.934200287E-1,7.712665558E0,5.550152302E0
1.662126272E1,-5.222335458E-1,7.664809227E0,5.758327484E0
1.664050178E1,-4.935196638E-1,7.639086246E0,6.336194515E0
1.665974084E1,-8.464609981E-1,7.910671711E0,6.483951092E0
1.667897991E1,-1.343569875E0,8.440681458E0,6.134599209E0
1.669821897E1,-1.430309772E0,8.979664803E0,5.750551224E0
1.671745814E1,-9.822536707E-1,9.035298347E0,6.137589931E0
1.673669720E1,-3.254238665E-1,8.840283394E0,6.996613503E0
1.675593626E1,2.464607358E-1,8.785248756E0,7.571488857E0
1.677517532E1,2.769692242E-1,9.250054359E0,7.664809227E0
1.679441438E1,-3.230310678E-1,1.034297562E1,6.340381622E0
1.681365345E1,-8.488538265E-1,1.081496048E1,4.697110653E0
1.683289251E1,-1.127617717E0,9.969097137E0,5.204389095E0
1.685213157E1,-2.853440940E-1,8.126026154E0,6.801598549E0
1.687137074E1,2.727817893E-1,6.887740135E0,7.896913052E0
1.689060980E1,-1.800599098E-1,6.686144829E0,7.640881062E0
1.690984886E1,-1.238883972E0,7.022934437E0,6.460621357E0
1.692908793E1,-1.927418590E0,7.304090977E0,5.615954876E0
1.694832699E1,-1.861616015E0,7.246663570E0,5.660222054E0
1.696756605E1,-1.235294700E0,7.099504948E0,5.826523304E0
1.698680512E1,-2.787638307E-1,6.993622303E0,5.843871117E0
1.700604418E1,2.871387303E-1,6.805187702E0,5.863611698E0
1.702528334E1,4.791627228E-1,6.552744865E0,6.013163090E0
1.704452241E1,5.976074338E-1,6.423532486E0,5.975476265E0
1.706376147E1,4.827519655E-1,6.482754707E0,5.557928562E0
1.708300053E1,1.585244983E-1,6.598208427E0,5.001597404E0
1.710223959E1,-1.034895778E-1,6.612565517E0,4.953142643E0
1.712147866E1,-2.530409992E-1,6.609574318E0,5.033302307E0
1.714071772E1,-4.163511395E-1,6.835696220E0,4.882554531E0
1.715995688E1,-6.263213158E-1,7.335197926E0,4.709673405E0
1.717919595E1,-8.679963946E-1,7.813164234E0,4.783850670E0
1.719843501E1,-8.739784956E-1,7.913064480E0,5.359324455E0
1.721767407E1,-5.264210105E-1,7.889734268E0,6.128018856E0
1.723691314E1,-3.361915946E-1,8.017750740E0,6.707081795E0
1.725615220E1,-3.912265003E-1,8.417949677E0,6.918846607E0
1.727539126E1,-8.572286963E-1,8.889934540E0,6.510870457E0
1.729463032E1,-1.108475089E0,9.235098839E0,5.991627693E0
1.731386949E1,-7.962117195E-1,9.273384094E0,6.166304111E0
1.733310855E1,-2.679961324E-1,9.165707588E0,6.807580471E0
1.735234762E1,-3.834498227E-1,9.321838379E0,7.228118896E0
1.737158668E1,-6.370890141E-1,9.929615974E0,6.856633186E0
1.739082574E1,-6.729813814E-1,1.000977516E1,5.716453075E0
1.741006480E1,-4.725824594E-1,9.215357780E0,5.836094379E0
1.742930386E1,-1.854437590E-2,8.066802979E0,6.819544315E0
1.744854293E1,2.195414752E-1,7.176673412E0,7.893921852E0
1.746778209E1,2.632105052E-1,6.882356167E0,8.318648338E0
1.748702116E1,-1.375873014E-2,6.952346325E0,7.618149281E0
1.750626022E1,-2.961117923E-1,7.117451191E0,6.352345943E0
1.752549928E1,-9.810572863E-2,7.190432072E0,5.476572990E0
1.754473834E1,4.917250574E-1,7.210172653E0,5.059623718E0
1.756397741E1,9.403793216E-1,7.304090977E0,4.880760193E0
1.758321647E1,1.093519926E0,7.491329670E0,4.472783566E0
1.760245553E1,6.526423693E-1,7.637291908E0,4.233501434E0
1.762169470E1,6.819544733E-2,7.549355507E0,4.266402721E0
1.764093376E1,-2.446661144E-1,7.279564857E0,4.588237286E0
1.766017282E1,-4.348955154E-1,6.999006271E0,4.981258392E0
1.767941188E1,-6.873382926E-1,6.850651264E0,5.306084156E0
1.769865095E1,-9.260223508E-1,6.916453838E0,5.569294930E0
1.771789001E1,-9.481559992E-1,7.157530785E0,5.650052547E0
1.773712907E1,-7.716853023E-1,7.467401028E0,5.514857769E0
1.775636814E1,-5.419743061E-1,7.743772507E0,5.243272781E0
1.777560730E1,-4.319044948E-1,7.932207108E0,5.072185993E0
1.779484636E1,-1.938186288E-1,7.984848976E0,5.035097122E0
1.781408543E1,-1.375873089E-1,8.066205025E0,5.290530682E0
1.783332449E1,-5.539384484E-1,8.285148621E0,5.493920803E0
1.785256355E1,-1.165304661E0,8.606983185E0,5.338387489E0
1.787180262E1,-1.525424480E0,8.892925262E0,5.326423168E0
1.789104168E1,-1.366301775E0,8.834898949E0,5.827121258E0
1.791028074E1,-8.015955687E-1,8.693124771E0,6.832705021E0
1.792951980E1,-3.882354796E-1,8.651848793E0,7.532605648E0
1.794875897E1,-6.005984545E-1,9.231510162E0,7.422535896E0
1.796799803E1,-1.313061476E0,1.023888779E1,5.657230854E0
1.798723709E1,-1.693520188E0,1.068694401E1,4.258625984E0
1.800647616E1,-1.309472203E0,9.784252167E0,5.241477966E0
1.802571522E1,-3.032902777E-1,8.534600258E0,6.730412006E0
1.804495428E1,2.596212626E-1,7.752745152E0,7.399205685E0
1.806419334E1,-6.903293133E-1,7.630711555E0,7.219145775E0
1.808343241E1,-1.855633974E0,7.728219032E0,6.308676720E0
1.810267147E1,-2.309073925E0,7.696514130E0,5.650052547E0
1.812191064E1,-2.160120726E0,7.493124008E0,5.502295494E0
1.814114970E1,-1.893320918E0,7.109674454E0,5.410770416E0
1.816038876E1,-1.540977836E0,6.803392887E0,5.232504845E0
1.817962782E1,-1.150349498E0,6.510272026E0,5.271388054E0
1.819886688E1,-8.362914920E-1,6.208776474E0,5.472385406E0
1.821810595E1,-4.612165689E-1,6.072385788E0,5.647061348E0
1.823734501E1,-4.091726840E-1,6.191428661E0,5.410770416E0
1.825658407E1,-6.945167780E-1,6.369693756E0,4.957928658E0
1.827582314E1,-8.835497499E-1,6.558128834E0,4.723432064E0
1.829506230E1,-9.828519225E-1,6.672984123E0,4.896313190E0
1.831430137E1,-1.050449133E0,6.918248653E0,5.203192711E0
1.833354043E1,-1.219143152E0,7.215556622E0,5.363512039E0
1.835277949E1,-1.386640668E0,7.580461979E0,5.501697540E0
1.837201855E1,-1.275972724E0,7.811369419E0,5.836094379E0
1.839125762E1,-1.089332461E0,7.846065521E0,6.672386169E0
1.841049668E1,-9.780662656E-1,7.938189030E0,7.442276478E0
1.842973574E1,-7.148557901E-1,8.111070633E0,7.881958008E0
1.844897480E1,-4.061816335E-1,8.431708336E0,7.898109436E0
1.846821387E1,-4.725824594E-1,8.839685440E0,7.233502865E0
1.848745303E1,-7.573283911E-1,9.238688469E0,6.296114445E0
1.850669209E1,-8.883354068E-1,9.416355133E0,6.002993584E0
1.852593116E1,-7.615157962E-1,9.629316330E0,6.546762943E0
1.854517022E1,-2.793620527E-1,9.868000984E0,6.232106686E0
1.856440928E1,-3.816552162E-1,9.635896683E0,5.631507874E0
1.858364834E1,-5.766702294E-1,8.821140289E0,5.769693375E0
1.860288741E1,-2.961117923E-1,7.701299667E0,6.842874527E0
1.862212647E1,-2.392822644E-3,6.798607349E0,8.168498039E0
1.864136553E1,1.034895778E-1,6.617949009E0,8.496315002E0
1.866060459E1,-3.505485058E-1,6.967899323E0,7.399804115E0
1.867984366E1,-7.722834945E-1,7.035496712E0,6.073582172E0
1.869908282E1,-5.862415433E-1,7.012764931E0,5.772684574E0
1.871832188E1,1.645065546E-1,6.927221775E0,5.824728489E0
1.873756095E1,5.599204898E-1,6.942176819E0,5.668596745E0
1.875680001E1,3.050848842E-1,6.976274490E0,5.490331650E0
1.877603907E1,-1.657029688E-1,6.974479675E0,5.303691387E0
1.879527814E1,-6.705885530E-1,7.008577347E0,5.224728107E0
1.881451720E1,-9.056833982E-1,6.941578388E0,5.200201988E0
1.883375626E1,-9.672985673E-1,6.870990276E0,5.475376606E0
1.885299532E1,-1.174875975E0,6.857231617E0,5.767300606E0
1.887223439E1,-1.442872047E0,7.053442955E0,5.930611134E0
1.889147345E1,-1.446461320E0,7.377670288E0,5.810371399E0
1.891071262E1,-1.164108157E0,7.668398380E0,5.618347645E0
1.892995168E1,-8.315058947E-1,7.765905857E0,5.571089268E0
1.894919074E1,-4.683950245E-1,7.637889862E0,5.796014786E0
1.896842980E1,-4.492524564E-1,7.581658363E0,5.996413708E0
1.898766886E1,-7.645068169E-1,7.664809227E0,6.050850391E0
1.900690793E1,-9.954141974E-1,8.028517723E0,5.955735683E0
1.902614699E1,-1.265205026E0,8.279764175E0,6.065805435E0
1.904538605E1,-1.259821177E0,8.413164139E0,6.156134605E0
1.906462512E1,-8.991031051E-1,8.520841599E0,6.308078766E0
1.908386418E1,-4.905286431E-1,8.571090698E0,6.565905571E0
1.910310324E1,-3.176472187E-1,8.623732567E0,6.949355125E0
1.912234230E1,-8.063812256E-1,9.137591362E0,6.780063152E0
1.914158147E1,-1.543370605E0,9.900303841E0,5.204987526E0
1.916082053E1,-1.645065546E0,9.827920914E0,5.234897614E0
1.918005959E1,-1.213161111E0,8.804988861E0,6.540780544E0
1.919929866E1,-6.083751321E-1,7.783253670E0,7.581658363E0
1.921853772E1,-5.934200287E-1,7.325028419E0,7.907082558E0
1.923777678E1,-1.390828133E0,7.478168964E0,7.155138016E0
1.925701584E1,-2.129612207E0,7.755736351E0,5.873781204E0
1.927625491E1,-2.524427891E0,7.748558044E0,5.164907455E0
1.929549397E1,-2.480160713E0,7.319644451E0,5.216353416E0
1.931473303E1,-1.983051777E0,6.870990276E0,5.510670662E0
1.933397209E1,-1.525424480E0,6.480361938E0,5.958726406E0
1.935321116E1,-1.086939692E0,6.156134605E0,6.327819347E0
1.937245022E1,-8.297112584E-1,5.961119175E0,6.640681267E0
1.939168939E1,-8.865407705E-1,5.880361557E0,6.555137634E0
1.941092845E1,-9.595218897E-1,6.084948063E0,6.019743443E0
1.943016751E1,-1.043270707E0,6.291927338E0,5.659025669E0
1.944940657E1,-8.027920127E-1,6.482156754E0,5.639284611E0
1.946864564E1,-6.358926296E-1,6.617351055E0,5.611168861E0
1.948788470E1,-7.794619799E-1,6.894320011E0,5.420939922E0
1.950712376E1,-1.030110121E0,7.317251682E0,5.380859852E0
1.952636282E1,-1.013360381E0,7.642675400E0,5.426921844E0
1.954560188E1,-9.667003751E-1,7.688737392E0,5.770291805E0
1.956484095E1,-7.950153351E-1,7.601399422E0,6.625725746E0
1.958408001E1,-6.753742099E-1,7.801199913E0,7.336992264E0
1.960331907E1,-7.752745152E-1,8.286943436E0,7.168896675E0
1.962255824E1,-9.649057388E-1,8.824729919E0,6.469594002E0
1.964179730E1,-8.883354068E-1,9.148957253E0,5.912066460E0
1.966103636E1,-7.836494446E-1,9.190832138E0,5.946164131E0
1.968027543E1,-6.957131624E-1,9.211171150E0,6.556334019E0
1.969951449E1,-4.432703853E-1,9.622735977E0,7.018148899E0
1.971875355E1,-3.774677813E-1,9.930811882E0,6.199205399E0
1.973799262E1,-6.687939167E-1,9.525228500E0,5.542375565E0
1.975723168E1,-6.580262184E-1,8.536395073E0,5.843871117E0
1.977647074E1,-5.306084156E-1,7.398009300E0,6.880561352E0
1.979570980E1,-3.367897868E-1,6.560521603E0,7.805387497E0
1.981494886E1,-6.412764788E-1,6.456433773E0,7.732406139E0
1.983418793E1,-9.302098155E-1,6.923632145E0,6.628118515E0
1.985342709E1,-1.213759303E0,7.147361279E0,5.408975601E0
1.987266616E1,-8.153542876E-1,6.956533432E0,5.230112076E0
1.989190522E1,1.417747438E-1,6.810571671E0,5.746363640E0
1.991114428E1,7.357929349E-1,6.815357208E0,5.848058701E0
1.993038334E1,4.115654826E-1,6.952944279E0,5.416153908E0
1.994962241E1,-3.140579760E-1,7.145566463E0,4.838885784E0
1.996886147E1,-8.285148144E-1,7.164111137E0,4.748556614E0
1.998810053E1,-1.070189953E0,6.969694138E0,5.071587563E0
2.000733959E1,-1.189232826E0,6.810571671E0,5.438287735E0
2.002657866E1,-1.351346612E0,6.777669907E0,5.741578102E0
2.004581772E1,-1.486541033E0,6.966702938E0,5.930012703E0
2.006505678E1,-1.442273855E0,7.263412952E0,5.908477306E0
2.008429584E1,-1.173081279E0,7.537391186E0,5.781059742E0
2.010353501E1,-1.010967612E0,7.667799950E0,5.714658737E0
2.012277407E1,-1.028315544E0,7.721638680E0,5.815755367E0
2.014201314E1,-9.607182741E-1,7.773084164E0,6.102894306E0
2.016125220E1,-1.012762189E0,7.889734268E0,6.312864304E0
2.018049126E1,-1.304686546E0,8.247461319E0,6.171687603E0
2.019973032E1,-1.498505235E0,8.535796165E0,5.998806477E0
2.021896938E1,-1.217946768E0,8.537590981E0,6.327221394E0
2.023820845E1,-7.447660565E-1,8.477172852E0,6.829115868E0
2.025744751E1,-4.791627228E-1,8.490931511E0,7.369295597E0
2.027668657E1,-6.364908218E-1,9.203393936E0,7.380063057E0
2.029592564E1,-1.112064362E0,1.027298546E1,5.496912003E0
2.031516470E1,-1.476969719E0,1.027657509E1,4.931009293E0
2.033440376E1,-1.098903775E0,9.116056442E0,6.352943897E0
2.035364282E1,-5.593222976E-1,8.037490845E0,7.324429989E0
2.037288199E1,-7.525427341E-1,7.450651646E0,7.934599876E0
2.039212105E1,-1.309472203E0,7.381857872E0,7.936394691E0
2.041136012E1,-1.609173179E0,7.624729156E0,7.118647575E0
2.043059918E1,-1.445863128E0,7.760521889E0,6.058028698E0
2.044983824E1,-1.138983607E0,7.595417500E0,5.459224701E0
2.046907730E1,-5.324030519E-1,7.311269760E0,5.379065514E0
2.048831637E1,-1.058823988E-1,6.955935478E0,5.544169903E0
2.050755543E1,2.572284266E-2,6.628716946E0,5.618945599E0
2.052679449E1,-7.417750359E-2,6.364310265E0,5.688337803E0
2.054603355E1,-2.315055877E-1,6.237490654E0,5.430510998E0
2.056527262E1,-4.426721931E-1,6.227919102E0,5.150550842E0
2.058451168E1,-6.203392744E-1,6.373881340E0,4.974080086E0
2.060375074E1,-7.357929349E-1,6.537191391E0,5.139782906E0
2.062298980E1,-7.286145091E-1,6.770491600E0,5.513661385E0
2.064222886E1,-5.312066078E-1,7.016952515E0,5.671587944E0
2.066146793E1,-5.647061467E-1,7.359724045E0,5.675177097E0
2.068070709E1,-7.022934556E-1,7.744968891E0,5.548357487E0
2.069994616E1,-7.339983582E-1,7.894520283E0,5.572285652E0
2.071918522E1,-6.496513486E-1,7.907082558E0,6.165705681E0
2.073842428E1,-4.402793646E-1,8.124829292E0,6.659225464E0
2.075766334E1,-2.793620527E-1,8.414361000E0,6.563512325E0
2.077690241E1,-4.384847581E-1,8.685347557E0,6.075974941E0
2.079614147E1,-5.910272002E-1,8.953344345E0,5.367699623E0
2.081538053E1,-6.149554253E-1,9.126225471E0,5.066203594E0
2.083461959E1,-4.947160780E-1,9.171091080E0,5.242674351E0
2.085385866E1,-3.553341627E-1,9.235098839E0,5.902495384E0
2.087309772E1,-5.820540786E-1,9.645467758E0,6.381059647E0
2.089233678E1,-6.556333899E-1,9.598209381E0,5.874379635E0
2.091157584E1,-7.322037220E-1,9.212367058E0,5.443073273E0
2.093081491E1,-4.570291340E-1,8.545368195E0,5.481956482E0
2.095005397E1,3.589233849E-3,8.043473244E0,5.793622017E0
2.096929314E1,1.046859920E-1,7.832904816E0,6.118447304E0
2.098853220E1,-2.656033039E-1,7.810771465E0,6.123831272E0
2.100777126E1,-5.371887088E-1,7.825128078E0,5.494519234E0
2.102701032E1,-6.741777658E-1,7.610372543E0,5.219942570E0
2.104624939E1,-4.211367965E-1,7.358527660E0,5.331208706E0
2.106548845E1,-1.698904037E-1,7.200003147E0,5.784648895E0
2.108472751E1,-1.716850251E-1,7.198806763E0,5.952744484E0
2.110396657E1,-5.389832854E-1,7.211967468E0,5.861817360E0
2.112320564E1,-7.627122402E-1,7.240083218E0,5.702096462E0
2.114244470E1,-8.721838593E-1,7.195816040E0,5.394618511E0
2.116168376E1,-1.066600680E0,7.115656376E0,5.060820103E0
2.118092282E1,-1.295115232E0,6.951149940E0,5.113461971E0
2.120016188E1,-1.491924882E0,6.914659023E0,5.321637630E0
2.121940095E1,-1.560120344E0,7.032505512E0,5.538786411E0
2.123864001E1,-1.519442320E0,7.269395351E0,5.579464436E0
2.125787907E1,-1.553540111E0,7.500900745E0,5.319842815E0
2.127711814E1,-1.530808330E0,7.671987534E0,5.000401020E0
2.129635720E1,-1.295713425E0,7.865806103E0,4.925027370E0
2.131559636E1,-1.125823021E0,8.057231903E0,5.098506927E0
2.133483543E1,-1.444068432E0,8.152346611E0,5.431707382E0
2.135407449E1,-1.794018745E0,8.306683540E0,5.831308842E0
2.137331355E1,-2.033899307E0,8.615956306E0,5.904289722E0
2.139255262E1,-2.094916344E0,8.827122688E0,6.035296917E0
2.141179168E1,-1.747358680E0,8.696713448E0,6.635297298E0
2.143103074E1,-1.197009563E0,8.456234932E0,7.770691395E0
2.145026980E1,-9.840483069E-1,8.619544983E0,8.170890808E0
2.146950886E1,-1.650449395E0,9.616754532E0,7.183851719E0
2.148874793E1,-1.850848317E0,1.005284595E1,5.148756027E0
2.150798699E1,-1.944766641E0,9.817152977E0,4.937589645E0
2.152722605E1,-1.542174220E0,8.890532494E0,5.916851997E0
2.154646512E1,-8.075776696E-1,8.333602905E0,6.440282345E0
2.156570418E1,-1.238285661E0,7.925626755E0,6.591030121E0
2.158494324E1,-1.913061738E0,7.652246952E0,6.623332977E0
2.160418230E1,-1.947159410E0,7.686344624E0,6.347560406E0
2.162342137E1,-1.737189293E0,7.721638680E0,5.732006550E0
2.164266043E1,-1.576870084E0,7.504489899E0,5.193621635E0
2.166189949E1,-1.244866014E0,7.085746288E0,5.303092957E0
2.168113855E1,-6.927221417E-1,6.767500877E0,5.682355404E0
2.170037772E1,-2.877369225E-1,6.400800705E0,6.226124287E0
2.171961678E1,-3.170489967E-1,6.175875187E0,6.263811588E0
2.173885584E1,-7.369893789E-1,6.192026615E0,5.720640659E0
2.175809491E1,-1.174875975E0,6.382854462E0,5.153541565E0
2.177733397E1,-1.532004714E0,6.437291145E0,5.166702271E0
2.179657303E1,-1.484746456E0,6.461219311E0,5.667998791E0
2.181581209E1,-1.326820135E0,6.594619274E0,6.165107727E0
2.183505116E1,-1.406979680E0,6.838686943E0,6.029314995E0
2.185429022E1,-1.387837172E0,7.174280643E0,5.676373482E0
2.187352928E1,-1.297508121E0,7.436294556E0,5.480162144E0
2.189276834E1,-1.258026481E0,7.628318787E0,5.651248932E0
2.191200741E1,-9.541380405E-1,7.830512047E0,6.168098450E0
2.193124647E1,-8.207381964E-1,8.121239662E0,6.339185238E0
2.195048553E1,-1.185643673E0,8.403593063E0,6.019743443E0
2.196972459E1,-1.509871125E0,8.719446182E0,5.558526993E0
2.198896366E1,-1.597807288E0,8.906085968E0,5.421537876E0
2.200820272E1,-1.636092424E0,8.994022369E0,5.550750256E0
2.202744178E1,-1.647458434E0,9.034101486E0,5.844469070E0
2.204668084E1,-1.721037745E0,9.002396584E0,6.330810547E0
2.206591991E1,-1.701296926E0,9.154341698E0,7.115656376E0
2.208515897E1,-1.607378602E0,9.653244972E0,6.988836765E0
2.210439803E1,-1.125224829E0,9.800403595E0,5.504688263E0
2.212363709E1,-1.109073281E0,9.833903313E0,4.697709084E0
2.214287616E1,-8.805587292E-1,9.061619759E0,4.440480709E0
2.216211522E1,-3.948157430E-1,8.136793137E0,5.527420521E0
2.218135439E1,-3.128615618E-1,7.646264553E0,6.409773827E0
2.220059345E1,-6.173482537E-1,7.558328629E0,6.538387775E0
2.221983251E1,-9.511470199E-1,7.638488293E0,5.987440586E0
2.223907157E1,-1.166501045E0,7.534998417E0,5.526223660E0
2.225831064E1,-9.475577474E-1,7.460222721E0,5.255835056E0
2.227754970E1,-4.319044948E-1,7.610970497E0,5.212764263E0
2.229678876E1,-2.805584669E-1,7.794021606E0,5.109872818E0
2.231602782E1,-3.547359705E-1,7.830512047E0,4.888536453E0
2.233526689E1,-5.330012441E-1,7.745566845E0,4.642673969E0
2.235450595E1,-8.303094506E-1,7.651050568E0,4.459024906E0
2.237374501E1,-1.068993568E0,7.564908981E0,4.587639332E0
2.239298407E1,-1.270588875E0,7.444071293E0,4.753342152E0
2.241222314E1,-1.677368641E0,7.436294556E0,4.852644444E0
2.243146220E1,-1.977667928E0,7.552944660E0,4.840082169E0
2.245070126E1,-1.770090580E0,7.804191113E0,4.765904427E0
2.246994032E1,-1.289731383E0,7.889734268E0,4.640281200E0
2.248917938E1,-1.068395257E0,7.800601959E0,4.647459984E0
2.250841845E1,-7.956135273E-1,7.824530125E0,4.630710125E0
2.252765751E1,-7.842476368E-1,8.131409645E0,4.610371113E0
2.254689657E1,-1.103689432E0,8.472985268E0,4.652843475E0
2.256613564E1,-1.286740422E0,8.764909744E0,4.800002098E0
2.258537470E1,-1.157527924E0,8.944371223E0,5.120640278E0
2.260461376E1,-9.804590940E-1,8.878568649E0,5.583651543E0
2.262385282E1,-7.298108935E-1,8.954540253E0,6.125626087E0
2.264309188E1,-8.051848412E-1,9.361320496E0,6.562315941E0
2.266233095E1,-1.319641709E0,1.024128056E1,5.991627693E0
2.268157001E1,-1.463211060E0,1.075095177E1,4.842474937E0
2.270080907E1,-1.415952802E0,1.060020447E1,4.918447018E0
2.272004814E1,-7.854440212E-1,9.706484795E0,5.696114540E0
2.273928720E1,-3.888336718E-1,8.544769287E0,6.330810547E0
2.275852626E1,-9.517452121E-1,7.611568928E0,7.295716286E0
2.277776532E1,-1.502094388E0,7.319046497E0,7.409973621E0
2.279700438E1,-1.782652855E0,7.433303356E0,6.605386734E0
2.281624345E1,-2.042274237E0,7.452445984E0,5.547759533E0
2.283548251E1,-2.002792597E0,7.376473904E0,4.582255363E0
2.285472157E1,-1.569691658E0,7.286743164E0,4.176671982E0
2.287396064E1,-1.231107235E0,7.162914753E0,4.202394962E0
2.289319980E1,-1.093519926E0,6.972685337E0,4.562514782E0
2.291243887E1,-1.051047325E0,6.697510719E0,5.041079044E0
2.293167793E1,-1.189831018E0,6.542575359E0,5.369493961E0
2.295091699E1,-1.506281853E0,6.494719028E0,5.468197823E0
2.297015605E1,-1.624128342E0,6.620342255E0,5.427519798E0
2.298939512E1,-1.534397483E0,6.793223381E0,5.365904808E0
2.300863418E1,-1.314856052E0,7.101299286E0,5.216951370E0
2.302787324E1,-1.135992527E0,7.404589653E0,5.175675392E0
2.304711230E1,-8.057830334E-1,7.758727551E0,5.233701229E0
2.306635137E1,-6.454638839E-1,7.924430370E0,5.440680504E0
2.308559043E1,-7.645068169E-1,8.005785942E0,5.803791523E0
2.310482949E1,-8.985049129E-1,8.126026154E0,6.216553211E0
2.312406855E1,-9.876375198E-1,8.251648903E0,6.644270420E0
2.314330762E1,-9.720842242E-1,8.551349640E0,6.748358250E0
2.316254668E1,-9.810572863E-1,8.976674080E0,6.297909260E0
2.318178574E1,-9.397810698E-1,9.208778381E0,5.965905190E0
2.320102480E1,-9.595218897E-1,9.224929810E0,6.019145489E0
2.322026386E1,-9.104689956E-1,9.266803741E0,6.647261143E0
2.323950293E1,-5.252245665E-1,9.501300812E0,6.918248653E0
2.325874199E1,-2.452643216E-1,9.622138023E0,5.951548100E0
2.327798105E1,-4.019941986E-1,9.646066666E0,5.064409256E0
2.329722012E1,-2.105683982E-1,9.210572243E0,5.041079044E0
2.331645918E1,2.632105052E-1,8.380861282E0,6.263213158E0
2.333569824E1,4.833501875E-1,7.729415417E0,7.406384468E0
2.335493730E1,8.374879509E-2,7.449455261E0,7.435696602E0
2.337417636E1,-2.967100143E-1,7.405188084E0,6.739983082E0
2.339341543E1,-4.546363056E-1,7.376473904E0,6.030511379E0
2.341265449E1,-3.032902777E-1,7.232306480E0,5.739783287E0
2.343189355E1,9.631111473E-2,7.050451756E0,5.457430363E0
2.345113262E1,2.297109663E-1,6.899703979E0,5.397011280E0
2.347037168E1,1.459621787E-1,6.883552551E0,5.131408215E0
2.348961074E1,-2.626122832E-1,6.964310169E0,4.683950424E0
2.350884980E1,-5.688936114E-1,7.028916359E0,4.269991875E0
2.352808886E1,-7.010970116E-1,6.956533432E0,4.264009953E0
2.354732793E1,-8.171489239E-1,6.894918442E0,4.417150497E0
2.356656699E1,-9.062815905E-1,7.039684296E0,4.441677094E0
2.358580605E1,-1.200000525E0,7.317251682E0,4.569693089E0
2.360504512E1,-1.542174220E0,7.570890903E0,4.679164886E0
2.362428418E1,-1.524826288E0,7.777870178E0,4.932205677E0
2.364352324E1,-1.310668588E0,7.791030407E0,5.607579708E0
2.366276241E1,-1.144367456E0,7.779664516E0,6.145965099E0
2.368200147E1,-1.156331539E0,7.954938889E0,6.396613121E0
2.370124053E1,-1.480558991E0,8.385646820E0,6.320641041E0
2.372047959E1,-1.896311998E0,8.754141808E0,5.971887112E0
2.373971866E1,-2.089532375E0,8.909076691E0,5.918646812E0
2.375895772E1,-1.794018745E0,8.752346992E0,6.565307140E0
2.377819678E1,-1.447657704E0,8.536993027E0,7.203592777E0
2.379743584E1,-1.265205026E0,8.509475708E0,7.701299667E0
2.381667491E1,-1.250249863E0,8.907880783E0,7.980661869E0
2.383591397E1,-1.584048629E0,9.717252731E0,7.081558704E0
2.385515303E1,-1.562513232E0,1.000678444E1,5.833701611E0
2.387439209E1,-1.485344648E0,9.360123634E0,6.244070530E0
2.389363116E1,-8.662018180E-1,8.270791054E0,7.267600536E0
2.391287022E1,-3.278166950E-1,7.505686283E0,7.567301750E0
2.393210928E1,-7.310073376E-1,7.273582458E0,7.289135933E0
2.395134834E1,-1.519442320E0,7.323233604E0,6.466603279E0
2.397058741E1,-1.759921074E0,7.335197926E0,5.714658737E0
2.398982647E1,-1.499701619E0,7.280162811E0,5.142774105E0
2.400908064E1,-1.393221021E0,7.118049145E0,4.800600529E0
2.402830459E1,-1.253240824E0,7.000801086E0,4.622933388E0
2.404754366E1,-1.082154036E0,6.866204739E0,4.785645485E0
2.406678282E1,-8.321040869E-1,6.568298340E0,5.250451088E0
2.408602188E1,-4.971089065E-1,6.445067883E0,5.614758492E0
2.410526095E1,-4.594219327E-1,6.469594002E0,5.463412285E0
2.412450001E1,-5.802595019E-1,6.508477688E0,5.261219025E0
2.414373907E1,-5.958128572E-1,6.558726788E0,5.156532764E0
2.416297814E1,-5.288137794E-1,6.646663189E0,5.190032482E0
2.418221720E1,-4.959124923E-1,6.826723099E0,5.153541565E0
2.420145626E1,-5.312066078E-1,7.018746853E0,5.187041283E0
2.422069532E1,-6.705885530E-1,7.311867714E0,5.119443893E0
2.423993438E1,-6.837490797E-1,7.548159122E0,5.091926575E0
2.425917345E1,-7.411768436E-1,7.686344624E0,5.452046394E0
2.427841251E1,-8.632107973E-1,7.809575081E0,5.791228771E0
2.429765157E1,-1.059422255E0,8.102097511E0,6.048457623E0
2.431689064E1,-1.221535921E0,8.422736168E0,6.160920143E0
2.433612970E1,-1.169492126E0,8.758927345E0,6.158527374E0
2.435536887E1,-9.942178130E-1,9.061619759E0,6.124429703E0
2.437460793E1,-8.985049129E-1,9.195018768E0,6.300900459E0
2.439384699E1,-7.399803996E-1,9.285946846E0,6.947560310E0
2.441308605E1,-6.699903607E-1,9.535996437E0,7.848458290E0
2.443232512E1,-2.721835673E-1,9.826126099E0,8.087740898E0
2.445156418E1,-2.213360928E-2,9.658030510E0,7.041478634E0
2.447080324E1,-1.555334777E-1,8.884550095E0,6.522834301E0
2.449004230E1,3.409772366E-2,7.720442295E0,7.070192814E0
2.450928137E1,1.310070455E-1,7.122834682E0,7.831708431E0
2.452852043E1,-2.662015259E-1,7.066603661E0,7.600800991E0
2.454775949E1,-8.027920127E-1,7.207181931E0,6.666403770E0
2.456699855E1,-8.865407705E-1,7.283154011E0,5.993422508E0
2.458623772E1,-5.383850932E-1,7.201199532E0,5.594419479E0
2.460547678E1,-1.393819153E-1,7.193423271E0,5.344369411E0
2.462471584E1,-4.307080805E-2,7.232904434E0,5.158925533E0
2.464395491E1,-4.677968323E-1,7.208378315E0,5.061418056E0
2.466319397E1,-9.547362328E-1,7.091129780E0,5.026721954E0
2.468243303E1,-1.259222865E0,6.926623344E0,5.130211830E0
2.470167209E1,-1.323230863E0,6.760920525E0,5.330610752E0
2.472091116E1,-1.381855130E0,6.623931408E0,5.649454117E0
2.474015022E1,-1.593619823E0,6.619145870E0,5.851049423E0
2.475938928E1,-1.843669891E0,6.789036274E0,5.742774487E0
2.477862845E1,-2.005783558E0,7.162316322E0,5.207978249E0
2.479786751E1,-1.942971945E0,7.495516777E0,4.944169998E0
2.481710657E1,-1.567298889E0,7.715656757E0,5.003990173E0
2.483634564E1,-1.253839016E0,7.728816986E0,5.251049519E0
2.485558470E1,-1.226321578E0,7.729415417E0,5.308476925E0
2.487482376E1,-1.404586911E0,7.898707390E0,5.493322372E0
2.489406282E1,-1.776072621E0,8.121838570E0,5.612963676E0
2.491330189E1,-1.949552298E0,8.362317085E0,5.989234924E0
2.493254095E1,-1.689931035E0,8.452047348E0,6.425925255E0
2.495178012E1,-1.332203984E0,8.534002304E0,6.714260101E0
2.497101918E1,-6.622136831E-1,8.624331474E0,7.179066181E0
2.499025824E1,-3.206382394E-1,9.148359299E0,7.509873867E0
2.500949730E1,-9.320043921E-1,1.030648518E1,6.089733601E0
2.502873636E1,-1.244267821E0,1.092323494E1,3.995415688E0
2.504797543E1,-1.709671736E0,1.041715336E1,4.118646145E0
2.506721449E1,-1.436890006E0,8.710473061E0,5.997610092E0
2.508645355E1,-5.168496966E-1,7.454240799E0,7.984848976E0
2.510569272E1,-1.363908947E-1,7.230511665E0,8.346165657E0
2.512493178E1,-1.062413216E0,7.698308468E0,6.822535515E0
2.514417084E1,-1.834696770E0,7.969295979E0,5.085944653E0
2.516340991E1,-1.683350682E0,7.982456207E0,4.640879631E0
2.518264897E1,-1.022333503E0,7.697112083E0,4.820341110E0
2.520188803E1,-3.080759048E-1,7.314260483E0,5.349154949E0
2.522112709E1,1.794616925E-3,6.957131863E0,5.819344521E0
2.524036616E1,9.272187948E-2,6.703492641E0,6.099305153E0
2.525960532E1,3.349951655E-2,6.627520561E0,5.907280922E0
2.527884439E1,-2.344966233E-1,6.751348972E0,5.352146149E0
2.529808345E1,-5.258227587E-1,6.853642464E0,4.895116806E0
2.531732251E1,-5.838487148E-1,6.931408882E0,4.609772682E0
2.533656157E1,-6.693921089E-1,7.077969551E0,4.504488468E0
2.535580064E1,-8.057830334E-1,7.319644451E0,4.395017147E0
2.537503970E1,-8.440681696E-1,7.522436142E0,4.402195454E0
2.539427886E1,-6.472585201E-1,7.555935860E0,4.737788677E0
2.541351793E1,-4.749752879E-1,7.590631485E0,5.142774105E0
2.543275699E1,-4.037888348E-1,7.654639721E0,5.392824173E0
2.545199605E1,-6.885347366E-1,7.777870178E0,5.567500114E0
2.547123512E1,-9.804590940E-1,8.032107353E0,5.535795212E0
2.549047418E1,-1.241276741E0,8.416753769E0,5.555535793E0
2.550971324E1,-1.514058471E0,8.841479301E0,5.569294930E0
2.552895241E1,-1.796411633E0,9.112466812E0,5.498706341E0
2.554819147E1,-1.666002750E0,9.106484413E0,5.910870075E0
2.556743053E1,-1.333998680E0,8.969495773E0,6.714858532E0
2.558666959E1,-1.226919770E0,9.101100922E0,7.080362320E0
2.560590866E1,-1.142572761E0,8.986844063E0,6.568896294E0
2.562514772E1,-1.398604870E0,8.831310272E0,6.228517532E0
2.564438678E1,-1.210170031E0,8.679366112E0,6.281159401E0
2.566362595E1,-8.315058947E-1,8.361120224E0,6.515655994E0
2.568286501E1,-4.725824594E-1,7.744968891E0,7.125825882E0
2.570210407E1,-5.264209956E-2,7.219145775E0,8.053643227E0
2.572134314E1,-6.281159073E-2,7.031907558E0,7.828119278E0
2.574058220E1,1.399801224E-1,7.085746288E0,7.380063057E0
2.575982126E1,2.458625287E-1,7.098308563E0,7.085746288E0
2.577906043E1,3.577269912E-1,7.228118896E0,6.588038921E0
2.579829949E1,4.959124923E-1,7.301698208E0,6.081956863E0
2.581753855E1,4.624129832E-1,7.208378315E0,6.008975983E0
2.583677762E1,2.901297510E-1,7.036693096E0,6.047261238E0
2.585601668E1,6.460621208E-2,6.926024914E0,6.048457623E0
2.587525574E1,-2.434697002E-1,6.943971157E0,5.910272121E0
2.589449491E1,-6.299105883E-1,6.998407841E0,5.768496990E0
2.591373397E1,-8.691928387E-1,6.984649181E0,5.669195175E0
2.593297303E1,-7.872386575E-1,7.060621262E0,5.597410202E0
2.595221209E1,-7.208378315E-1,7.091129780E0,5.585446358E0
2.597145116E1,-5.497509837E-1,7.165307522E0,5.307878971E0
2.599069032E1,-2.237289101E-1,7.255038261E0,5.185246468E0
2.600992939E1,-4.785645287E-3,7.339385033E0,5.216353416E0
2.602916845E1,1.040877849E-1,7.412366390E0,5.114060402E0
2.604840751E1,1.794617027E-1,7.502695560E0,5.168497086E0
2.606764657E1,1.938186288E-1,7.756932735E0,5.388038158E0
2.608688564E1,-1.824527234E-1,8.083553314E0,5.491528034E0
2.610612480E1,-4.283152521E-1,8.455039024E0,5.374877930E0
2.612536386E1,-1.100698411E-1,8.626125336E0,5.725426197E0
2.614460293E1,5.192425251E-1,8.526225090E0,6.599404812E0
2.616384199E1,7.549355626E-1,8.397610664E0,6.923034191E0
2.618308105E1,6.813562512E-1,8.531010628E0,6.761518478E0
2.620232022E1,2.333002090E-1,9.028120041E0,6.348756790E0
2.622155928E1,-1.561316848E-1,9.439684868E0,5.979663849E0
2.624079834E1,-6.161518097E-1,9.255437851E0,5.600401402E0
2.626003741E1,-7.746763229E-1,8.495118141E0,5.781059742E0
2.627927647E1,-5.000999570E-1,7.306483746E0,6.916453838E0
2.629851553E1,-3.942175210E-1,6.452246189E0,7.899903774E0
2.631775470E1,-8.614161611E-1,6.513861656E0,7.944170952E0
2.633699376E1,-1.512263894E0,7.059424877E0,7.032505512E0
2.635623282E1,-1.746162295E0,7.522436142E0,6.487540245E0
2.637547189E1,-1.456032634E0,7.808378696E0,6.270391941E0
2.639471095E1,-6.209374666E-1,7.845467091E0,6.199803352E0
2.641395012E1,1.136590764E-1,7.847859859E0,5.962913990E0
2.643318918E1,6.616154313E-1,7.579265594E0,6.203990936E0
2.645242824E1,1.219143152E0,7.290930748E0,6.534200668E0
2.647166730E1,1.419542074E0,6.934400082E0,6.674778938E0
2.649090636E1,9.918249846E-1,6.723233223E0,6.340980053E0
2.651014553E1,4.761717021E-1,6.719046116E0,6.270989895E0
2.652938459E1,3.014956415E-1,6.884748936E0,6.317051888E0
2.654862366E1,1.621137410E-1,6.978068829E0,6.282355785E0
2.656786272E1,-1.196411345E-2,7.044469833E0,6.037091732E0
2.658710178E1,-1.154536903E-1,7.254439831E0,5.690730572E0
2.660634095E1,-1.345962733E-1,7.594819069E0,5.349753380E0
2.662558001E1,-9.152546525E-2,7.810173035E0,5.308476925E0
2.664481907E1,8.434699476E-2,7.856832981E0,5.617151260E0
2.666405814E1,3.224328458E-1,7.849654675E0,6.156732559E0
2.668329720E1,2.195414752E-1,7.777870178E0,6.653243542E0
2.670253636E1,-1.806581169E-1,7.736593723E0,6.872186661E0
2.672177543E1,-5.718846321E-1,7.864609718E0,6.905686378E0
2.674101449E1,-5.084748268E-1,7.925626755E0,7.013961315E0
2.676025355E1,-2.494517565E-1,7.776673794E0,7.317849636E0
2.677949262E1,4.426721856E-2,7.636693478E0,7.714460373E0
2.679873178E1,1.310070455E-1,7.895118237E0,8.022536278E0
2.681797084E1,1.316052526E-1,8.361719131E0,7.144968510E0
2.683720991E1,1.974078640E-2,8.331808090E0,6.394220352E0
2.685644897E1,1.178465188E-1,7.983054638E0,6.354738712E0
2.687568814E1,9.266205430E-1,7.142575741E0,6.909275532E0
2.689492720E1,1.413560033E0,6.467201233E0,7.944769382E0
2.691416626E1,8.608179688E-1,6.420541286E0,7.731209755E0
2.693340532E1,4.606183618E-2,6.813562393E0,6.553342819E0
2.695264439E1,-3.804588020E-1,7.089335442E0,5.827121258E0
2.697188355E1,-2.614158690E-1,7.259823799E0,5.510072231E0
2.699112262E1,2.518445849E-1,7.353144169E0,5.432903767E0
2.701036168E1,4.797609448E-1,7.226922512E0,5.539982796E0
2.702960074E1,3.403790295E-1,6.989434719E0,5.838487148E0
2.704883980E1,3.056831062E-1,6.923034191E0,6.057430744E0
2.706807897E1,3.589234129E-2,6.893722057E0,6.000002861E0
2.708731803E1,-1.495514214E-1,6.808776855E0,5.980261803E0
2.710655709E1,7.716853172E-2,6.714858532E0,6.357729912E0
2.712579616E1,-1.914258115E-2,6.803991318E0,6.675975323E0
2.714503532E1,-2.979064286E-1,7.213163853E0,6.230311871E0
2.716427439E1,-4.707878530E-1,7.691728592E0,5.688935757E0
2.718351345E1,-5.132604837E-1,8.000402451E0,5.533402443E0
2.720275251E1,-2.937189937E-1,8.039285660E0,5.797809124E0
2.722199168E1,-2.476571500E-1,7.981858253E0,6.065207005E0
2.724123074E1,-4.642075896E-1,8.008777618E0,6.335596085E0
2.726046980E1,-6.801598072E-1,8.343772888E0,6.325426579E0
2.727970887E1,-8.315058947E-1,8.653642654E0,6.108277798E0
2.729894803E1,-8.075776696E-1,8.621937752E0,6.610770702E0
2.731818709E1,-4.247260094E-1,8.271987915E0,7.378866673E0
2.733742616E1,-2.428714931E-1,8.099704742E0,7.584649563E0
2.735666522E1,-2.835494876E-1,8.087141991E0,7.228717327E0
2.737590428E1,-3.942175210E-1,8.114660263E0,6.894320011E0
2.739514345E1,-8.129615188E-1,8.519644737E0,6.421737671E0
2.741438251E1,-1.308874011E0,9.007781029E0,5.798407555E0
2.743362157E1,-1.559522152E0,9.372088432E0,5.325825214E0
2.745286064E1,-1.399801254E0,8.688937187E0,5.415555954E0
2.747209980E1,-1.021137118E0,7.617550850E0,6.137589931E0
2.749133887E1,-4.671986103E-1,7.117451191E0,6.680760860E0
2.751057793E1,-5.581258535E-1,7.028916359E0,6.766902447E0
2.752981699E1,-9.996016622E-1,7.131807804E0,6.620940208E0
2.754905616E1,-1.177866936E0,7.265207767E0,6.577869415E0
2.756829522E1,-9.631111026E-1,7.527221680E0,6.243472576E0
2.758753428E1,-4.588237405E-1,7.663014412E0,5.873781204E0
2.760677345E1,2.596212626E-1,7.329813957E0,5.863013744E0
2.762601251E1,8.715856671E-1,6.897311211E0,6.016154289E0
2.764525157E1,1.156331539E0,6.611369133E0,6.087340832E0
2.766449064E1,8.626125455E-1,6.659823418E0,5.658427238E0
2.768372970E1,3.643072546E-1,6.756134510E0,5.254040241E0
2.770296887E1,-6.879365444E-2,6.693921566E0,5.330012321E0
2.772220793E1,-2.775674164E-1,6.674180508E0,5.530411243E0
2.774144699E1,-4.851447940E-1,6.880561352E0,5.366502762E0
2.776068616E1,-6.334998012E-1,7.267600536E0,5.078765869E0
2.777992522E1,-8.093722463E-1,7.629515171E0,5.042275429E0
2.779916512E1,-9.505487680E-1,7.777271748E0,5.423332691E0
2.781840334E1,-4.115654826E-1,7.767102242E0,6.399604321E0
2.783764251E1,2.428714931E-1,7.721638680E0,7.317251682E0
2.785688157E1,5.000999570E-1,7.737192154E0,7.764709473E0
2.787612064E1,4.917250574E-1,7.954938889E0,7.560122967E0
2.789535970E1,3.583251834E-1,8.268398285E0,7.165905476E0
2.791459887E1,1.830509305E-1,8.460422516E0,6.954739094E0
2.793383793E1,4.085744619E-1,8.541180611E0,7.308278561E0
2.795307699E1,6.550351977E-1,8.828917503E0,8.003393173E0
2.797231605E1,6.047859192E-1,9.221938133E0,7.387839794E0
2.799155522E1,5.210371017E-1,9.522237778E0,6.179464340E0
2.801079428E1,9.930213690E-1,9.236893654E0,6.063412666E0
2.803003334E1,1.762313843E0,8.044071198E0,6.792625427E0
2.804927241E1,2.579462767E0,7.086344242E0,8.094321251E0
2.806851157E1,2.487339020E0,6.519245148E0,8.501698494E0
2.808775064E1,1.433898926E0,6.506682873E0,7.606783390E0
2.810698970E1,5.156532526E-1,6.729813576E0,6.424728870E0
2.812622886E1,8.673982322E-2,6.773482800E0,5.764907837E0
2.814546793E1,2.410768867E-1,6.694519520E0,5.376074314E0
2.816470699E1,5.126622319E-1,6.626922131E0,5.367699623E0
2.818394605E1,7.082754970E-1,6.597012043E0,5.467599869E0
2.820318522E1,7.651050687E-1,6.614359856E0,5.553741455E0
2.822242428E1,5.545366406E-1,6.672386169E0,5.666802406E0
2.824166334E1,2.009970993E-1,6.681957245E0,5.769095421E0
2.826090251E1,9.870393574E-2,6.744170666E0,5.930611134E0
2.828014157E1,8.554340899E-2,6.900302410E0,6.149554253E0
2.829938064E1,-1.064806059E-1,7.122834682E0,6.170491219E0
2.831861970E1,-3.672982752E-1,7.483552933E0,5.917450428E0
2.833785886E1,-6.406782866E-1,7.789236069E0,5.705087185E0
2.835709793E1,-5.772684813E-1,8.023732185E0,5.514259815E0
2.837633699E1,-4.169493318E-1,8.049455643E0,5.708078384E0
2.839557616E1,-5.168496966E-1,7.990232944E0,6.065207005E0
2.841481522E1,-6.305087805E-1,8.072785378E0,6.567699909E0
2.843405428E1,-7.118647099E-1,8.303094864E0,6.875775814E0
2.845329334E1,-7.609176040E-1,8.491529465E0,6.964310169E0
2.847253251E1,-4.169493318E-1,8.454441071E0,7.127022266E0
2.849177157E1,2.859423161E-1,8.169694901E0,7.545167923E0
2.851101064E1,6.490531564E-1,7.913064480E0,8.093124390E0
2.853024980E1,-1.477568001E-1,8.568099976E0,6.893123627E0
2.854948886E1,-1.289133191E0,9.202198029E0,5.538187981E0
2.856872793E1,-1.219741344E0,8.940183640E0,5.283352375E0
2.858796699E1,-3.607180119E-1,7.795217991E0,6.662216663E0
2.860720616E1,-8.973085321E-3,7.070192814E0,7.354340553E0
2.862644522E1,-1.094716340E-1,6.966104984E0,7.296314240E0
2.864568428E1,-5.006981492E-1,7.203592777E0,6.903891563E0
2.866492345E1,-4.336991012E-1,7.639684677E0,6.074778557E0
2.868416251E1,-2.931207791E-2,7.863413334E0,5.624329567E0
2.870340157E1,4.941178858E-1,7.501499176E0,5.512465000E0
2.872264064E1,9.038887620E-1,7.077371120E0,5.785246849E0
2.874187980E1,8.524430394E-1,6.857231617E0,6.254240036E0
2.876111886E1,1.668993831E-1,6.892525673E0,6.230910301E0
2.878035793E1,-5.300102234E-1,7.191030025E0,5.777470112E0
2.879959709E1,-8.392825127E-1,7.344769001E0,5.575874805E0
2.881883616E1,-7.190431952E-1,7.328617573E0,5.442475319E0
2.883807522E1,-4.492524564E-1,7.118049145E0,5.706283569E0
2.885731439E1,-3.278166950E-1,7.091129780E0,5.907280922E0
2.887655345E1,-6.113662124E-1,7.386643410E0,5.893522263E0
2.889579251E1,-1.028315544E0,7.870592117E0,5.418546677E0
2.891503168E1,-1.275972724E0,8.364111900E0,4.936393261E0
2.893427074E1,-1.327418327E0,8.577671051E0,4.929812908E0
2.895350980E1,-1.006181955E0,8.487341881E0,5.286941528E0
2.897274887E1,-7.824530005E-1,8.472985268E0,5.704489231E0
2.899198803E1,-7.447660565E-1,8.559126854E0,6.150750637E0
2.901122709E1,-9.260223508E-1,8.865407944E0,6.113063812E0
2.903046616E1,-1.085743308E0,9.145966530E0,5.802595139E0
2.904970532E1,-1.067198873E0,9.299106598E0,5.692524910E0
2.906894438E1,-1.024128079E0,9.381061554E0,5.912066460E0
2.908818345E1,-1.042074203E0,9.464810371E0,6.072385788E0
2.910742262E1,-8.895317912E-1,9.530014038E0,6.497111797E0
2.912666168E1,-6.317051649E-1,9.488140106E0,6.919445038E0
2.914590074E1,-4.049852192E-1,9.068199158E0,6.366104603E0
2.916513980E1,-4.498506486E-1,8.575278282E0,5.739185333E0
2.918437897E1,-1.052841991E-1,7.707880020E0,5.477769375E0
2.920361803E1,1.417747438E-1,7.335197926E0,5.534598827E0
2.922285709E1,-1.674975902E-1,7.459026337E0,4.965106964E0
2.924209626E1,-7.824530005E-1,7.571488857E0,4.362115860E0
2.926133532E1,-7.842476368E-1,7.461419106E0,4.302893162E0
2.928057438E1,-2.787638307E-1,7.071389198E0,4.914259434E0
2.929981355E1,-6.580262445E-3,6.833901405E0,5.199603558E0
2.931905262E1,1.884347796E-1,6.818946362E0,5.283352375E0
2.933829168E1,3.074777126E-1,6.896114826E0,5.381458282E0
2.935753084E1,4.187439755E-2,7.022336483E0,5.164309502E0
2.937676991E1,-1.962114573E-1,7.082156658E0,5.018945694E0
2.939600897E1,-9.930214286E-2,7.143772125E0,5.040481091E0
2.941524803E1,-7.956135273E-2,7.246663570E0,5.042873859E0
2.943448720E1,-7.118647546E-2,7.483552933E0,4.936991215E0
2.945372626E1,-9.212367237E-2,7.805387497E0,4.725824833E0
2.947296532E1,-2.506481707E-1,8.009375572E0,4.694119930E0
2.949220449E1,-4.259224236E-1,8.099704742E0,4.971687317E0
2.951144355E1,-3.960121572E-1,8.192426682E0,5.202594757E0
2.953068262E1,-1.698904037E-1,8.375477791E0,5.164907455E0
2.954992178E1,-2.931207791E-2,8.577671051E0,4.960919380E0
2.956916084E1,-1.375873014E-2,8.661419868E0,5.206781864E0
2.958839991E1,7.716853172E-2,8.693124771E0,6.005984783E0
2.960763907E1,-4.606183618E-2,8.707481384E0,6.823133945E0
2.962687814E1,-7.477571070E-2,8.847461700E0,7.125227451E0
2.964611720E1,2.117647976E-1,9.038289070E0,7.159923553E0
2.966535636E1,5.210371017E-1,9.050253868E0,7.317849636E0
2.968459543E1,6.472585201E-1,8.935398102E0,7.832306862E0
2.970383449E1,4.929214716E-1,9.195617676E0,8.058428764E0
2.972307366E1,7.118647546E-2,1.002712345E1,6.713063717E0
2.974231272E1,-4.265206456E-1,1.056909752E1,4.959125042E0
2.976155178E1,-6.323033571E-1,9.960124016E0,4.397409916E0
2.978079095E1,-5.114658475E-1,8.170292854E0,5.559125423E0
2.980003001E1,-2.931207716E-1,6.966104984E0,6.987041950E0
2.981926907E1,-6.610172391E-1,6.759724140E0,7.141977310E0
2.983850824E1,-1.536192179E0,6.981658459E0,6.421139717E0
2.985774730E1,-2.177468538E0,7.161119938E0,5.781059742E0
2.987698636E1,-2.066202402E0,7.289135933E0,5.405984402E0
2.989622553E1,-1.210170031E0,7.240083218E0,5.115854740E0
2.991546459E1,-2.715853751E-1,7.010372162E0,5.164309502E0
2.993470366E1,3.248256743E-1,6.869793892E0,5.218746185E0
2.995394272E1,4.552344978E-1,6.960123062E0,4.971687317E0
2.997318189E1,-9.152546525E-2,7.141379356E0,4.917848587E0
2.999242095E1,-6.394818425E-1,7.302894592E0,5.129613400E0
3.001166001E1,-9.774680734E-1,7.329215527E0,5.353342533E0
3.003089918E1,-9.661021233E-1,7.360920429E0,5.469394207E0
3.005013824E1,-8.392825127E-1,7.505686283E0,5.407180786E0
3.006937730E1,-6.879364848E-1,7.752147198E0,5.133800983E0
3.008861647E1,-6.323033571E-1,7.935796261E0,4.951348305E0
3.010785553E1,-6.502495408E-1,8.029714584E0,5.063212872E0
3.012709459E1,-5.635097623E-1,8.054839134E0,5.357530117E0
3.014633376E1,-3.224328458E-1,8.182855606E0,5.614758492E0
3.016557282E1,-4.923232496E-1,8.349754333E0,5.657829285E0
3.018481189E1,-7.010970116E-1,8.374280930E0,5.705087185E0
3.020405105E1,-5.054838061E-1,8.421539307E0,5.842076302E0
3.022329012E1,-2.518445849E-1,8.419146538E0,6.304489613E0
3.024252918E1,-2.273181528E-1,8.529216766E0,6.735197544E0
3.026176834E1,-5.665007830E-1,9.139386177E0,6.959524632E0
3.028100741E1,-7.734799385E-1,9.912267685E0,6.178866386E0
3.030024647E1,-7.405785918E-1,1.016829967E1,4.771288395E0
3.031948564E1,-6.514459848E-1,9.357730865E0,4.971687317E0
3.033872470E1,2.566302419E-1,7.820342541E0,6.370890141E0
3.035796376E1,7.740781307E-1,6.984649181E0,7.932207108E0
3.037720293E1,4.133601189E-1,7.214360237E0,7.568498135E0
3.039644199E1,-7.836494446E-1,7.806583881E0,5.940780640E0
3.041568105E1,-1.591227055E0,8.112266541E0,4.765306473E0
3.043492022E1,-1.063609719E0,8.060222626E0,4.560719967E0
3.045415928E1,-6.759724021E-2,7.736593723E0,4.958526611E0
3.047339834E1,5.258227587E-1,7.388438225E0,5.461617470E0
3.049263751E1,5.264210105E-1,7.257431030E0,5.571687698E0
3.051187657E1,1.333998591E-1,7.399804115E0,5.355136871E0
3.053111564E1,-7.118647546E-2,7.532007694E0,5.206183910E0
3.055035480E1,-3.349951655E-2,7.469794273E0,5.240281582E0
3.056959386E1,-1.483550072E-1,7.414759159E0,5.331807137E0
3.058883293E1,-1.704886109E-1,7.378866673E0,5.423930645E0
3.060807199E1,-2.273181528E-1,7.534998417E0,5.504688263E0
3.062731116E1,-3.493520916E-1,7.817949772E0,5.139184952E0
3.064655022E1,-4.618147612E-1,8.180462837E0,4.593621254E0
3.066578928E1,-4.767699242E-1,8.349156380E0,4.339982033E0
3.068502845E1,-4.372883439E-1,8.281558990E0,4.558327198E0
3.070426751E1,-6.538388133E-1,8.142177582E0,5.102096081E0
3.072350657E1,-7.716853023E-1,8.214560509E0,5.676971912E0
3.074274574E1,-5.593222976E-1,8.434102058E0,6.169294834E0
3.076198480E1,-3.637090325E-1,8.700303078E0,6.022136211E0
3.078122386E1,6.400800496E-2,8.813961983E0,5.961717606E0
3.080046303E1,4.971089065E-1,8.679964066E0,6.566503525E0
3.081970209E1,4.797609448E-1,8.543573380E0,7.579864025E0
3.083894116E1,-1.716850251E-1,9.312865257E0,7.064808846E0
3.085818032E1,-9.750752449E-1,1.036151981E1,5.651248932E0
3.087741939E1,-1.244267821E0,1.081496048E1,4.587040901E0
3.089665845E1,-7.896314859E-1,9.598808289E0,5.063810825E0
3.091589762E1,1.854437590E-1,7.687541008E0,7.366902828E0
3.093513668E1,8.584251404E-1,6.722036839E0,8.883354187E0
3.095437574E1,-3.146561682E-1,6.919445038E0,8.347960472E0
3.097361480E1,-1.630110383E0,7.401598454E0,6.970292568E0
3.099285397E1,-2.230708838E0,7.543971539E0,6.256632805E0
3.101209303E1,-1.770090580E0,7.278368473E0,6.421737671E0
3.103133209E1,-8.231309652E-1,6.841079712E0,6.982854843E0
3.105057126E1,-2.368894368E-1,6.583253384E0,6.905686378E0
3.106981032E1,-2.177468538E-1,6.602396011E0,6.302694798E0
3.108904939E1,-5.653043389E-1,6.705885410E0,5.639284611E0
3.110828855E1,-9.158528447E-1,6.743572235E0,5.330012321E0
3.112752762E1,-1.113260746E0,6.796214581E0,5.312664509E0
3.114676668E1,-1.101296663E0,6.859025955E0,5.531009674E0
3.116600584E1,-1.013360381E0,7.100102901E0,5.565705299E0
3.118524491E1,-9.320043921E-1,7.423732281E0,5.275575638E0
3.120448397E1,-9.936196208E-1,7.600203037E0,5.035097122E0
3.122372303E1,-1.107278705E0,7.723433495E0,5.099703312E0
3.124296220E1,-1.168295622E0,7.906484127E0,5.283950806E0
3.126220126E1,-1.191027522E0,8.094321251E0,5.530411243E0
3.128144009E1,-1.328016520E0,8.169694901E0,5.998208046E0
3.130067926E1,-1.425524116E0,8.227122307E0,6.240481377E0
3.131991858E1,-1.314856052E0,8.396414757E0,6.326025009E0
3.133915764E1,-1.308275819E0,8.548358917E0,6.213562012E0
3.135839671E1,-1.301097274E0,8.632107735E0,6.159125328E0
3.137763587E1,-1.141376376E0,8.812167168E0,5.967101574E0
3.139687494E1,-9.942178130E-1,8.923434258E0,5.787639618E0
3.141611400E1,-1.093519926E0,9.022137642E0,5.916254044E0
3.143535316E1,-1.438684583E0,9.496515274E0,5.733801365E0
3.145459223E1,-1.204187989E0,9.715457916E0,4.621737003E0
3.147383129E1,-1.092323542E0,9.622735977E0,4.259822369E0
3.149307035E1,-8.470591903E-1,8.893523216E0,4.412963390E0
3.151230952E1,-1.818545163E-1,7.892725468E0,5.419145107E0
3.153154858E1,-7.178468257E-2,7.387839794E0,6.579065800E0
3.155078764E1,-2.219343036E-1,7.310671329E0,6.492924213E0
3.157002681E1,-5.120640397E-1,7.555337429E0,5.715855122E0
3.158926587E1,-3.332005441E-1,7.528418064E0,5.289932728E0
3.160850494E1,1.250249892E-1,7.457231998E0,5.239683151E0
3.162775223E1,5.264210105E-1,7.488338470E0,4.899902344E0
3.164698316E1,4.241278172E-1,7.446464062E0,4.956732273E0
3.166622223E1,3.511467278E-1,7.391428947E0,5.185246468E0
3.168546129E1,2.715853751E-1,7.411767960E0,5.139184952E0
3.170470046E1,7.836493850E-2,7.361518860E0,4.956732273E0
3.172393952E1,-5.982056726E-3,7.300501823E0,4.813162804E0
3.174317858E1,-1.615155302E-2,7.332805157E0,4.762315273E0
3.176241764E1,-1.788634956E-1,7.416553974E0,4.836492538E0
3.178165681E1,-3.816552162E-1,7.629515171E0,4.736592293E0
3.180089587E1,-4.307080805E-1,7.905886173E0,4.794020176E0
3.182013494E1,-3.014956415E-1,8.176873207E0,4.700101852E0
3.183937400E1,-2.045863420E-1,8.263612747E0,4.709673405E0
3.185861316E1,-3.332005441E-1,8.221738815E0,4.895715237E0
3.187785223E1,-5.473581553E-1,8.291130066E0,5.145765305E0
3.189709129E1,-8.470591903E-1,8.517251968E0,5.520241737E0
3.191633035E1,-1.068395257E0,8.755936623E0,6.050850391E0
3.193556952E1,-9.655039310E-1,8.765507698E0,6.603592396E0
3.195480858E1,-5.736792088E-1,8.664410591E0,7.102495670E0
3.197404764E1,-2.027917206E-1,8.599205971E0,7.457231998E0
3.199328671E1,-1.734796353E-2,8.701499939E0,7.589435101E0
3.201252587E1,-2.566302419E-1,9.321838379E0,7.159325123E0
3.203176494E1,-3.595215976E-1,9.882955551E0,6.148955822E0
3.205100400E1,-4.630111754E-1,1.034177971E1,5.398806095E0
3.207024306E1,-3.236292601E-1,9.717850685E0,5.599802971E0
3.208948223E1,2.853440940E-1,8.287541389E0,7.121040344E0
3.210872129E1,8.751748800E-1,6.882356167E0,8.644071579E0
3.212796035E1,4.576273263E-1,6.162116528E0,9.038289070E0
3.214719941E1,-7.094719410E-1,6.405586243E0,7.526025295E0
3.216643858E1,-1.724028707E0,6.900900364E0,5.830710411E0
3.218567764E1,-1.998605132E0,7.247261524E0,4.698905468E0
3.220491671E1,-1.649851203E0,7.207779884E0,4.806582451E0
3.222415577E1,-1.108475089E0,6.869793892E0,5.404190063E0
3.224339494E1,-6.915257573E-1,6.577271461E0,6.035296917E0
3.226263400E1,-5.497509837E-1,6.429514408E0,6.311069489E0
3.228187306E1,-5.132604837E-1,6.393621922E0,6.513861656E0
3.230111212E1,-3.780659735E-1,6.448058605E0,6.541378975E0
3.232035118E1,-1.932204217E-1,6.550352097E0,6.315257072E0
3.233959035E1,-2.506481707E-1,6.735197544E0,5.895915031E0
3.235882941E1,-5.700899959E-1,6.863213539E0,5.528018475E0
3.237806848E1,-7.280163169E-1,7.134799004E0,5.326423168E0
3.239730754E1,-6.358926296E-1,7.434499741E0,5.246263504E0
3.241654671E1,-5.497509837E-1,7.601399422E0,5.290530682E0
3.243578577E1,-4.199403822E-1,7.655836105E0,5.240880013E0
3.245502483E1,-3.762713671E-1,7.646862984E0,5.249254704E0
3.247426389E1,-3.451646566E-1,7.623532772E0,5.405386448E0
3.249350296E1,-2.327020019E-1,7.683951855E0,5.782854080E0
3.251274212E1,-3.182454109E-1,7.923832417E0,5.925227165E0
3.253198118E1,-4.121637046E-1,8.231309891E0,6.125027657E0
3.255122025E1,-4.791627228E-1,8.359924316E0,6.731608391E0
3.257045931E1,-5.108676553E-1,8.358727455E0,7.210771084E0
3.258969837E1,-3.762713671E-1,8.275577545E0,7.399804115E0
3.260893754E1,-3.158525825E-1,8.351549149E0,7.582854748E0
3.262817660E1,-3.403790295E-1,8.682954788E0,7.353742123E0
3.264741566E1,-1.932204217E-1,9.000003815E0,6.471987247E0
3.266665473E1,-8.135596663E-2,9.144769669E0,6.053243160E0
3.268589379E1,2.709871531E-1,8.933005333E0,6.407381058E0
3.270513296E1,5.838487148E-1,8.458627701E0,6.898507595E0
3.272437202E1,7.555337548E-1,7.931608677E0,7.319644451E0
3.274361108E1,1.046859860E0,7.222136974E0,8.109873772E0
3.276285014E1,1.130010486E0,6.719046116E0,8.598010063E0
3.278208921E1,8.644071817E-1,6.612565517E0,8.108677864E0
3.280132837E1,5.808576941E-1,6.737590313E0,7.304090977E0
3.282056744E1,6.352944374E-1,6.691528320E0,6.869195461E0
3.283980650E1,1.065404296E0,6.624529362E0,6.790830612E0
3.285904556E1,1.215553880E0,6.727420807E0,6.276971817E0
3.287828462E1,1.240678549E0,6.782455921E0,5.654838085E0
3.289752368E1,1.215553880E0,6.701099873E0,5.478965759E0
3.291676285E1,1.223928809E0,6.535995007E0,5.405984402E0
3.293600191E1,1.164108157E0,6.588637352E0,5.114060402E0
3.295524098E1,7.968099117E-1,6.680760860E0,4.811367989E0
3.297448004E1,6.293123364E-1,6.719644070E0,4.914259434E0
3.299371910E1,8.703892231E-1,6.820142746E0,5.441876888E0
3.301295827E1,9.708877802E-1,6.996015072E0,5.677569866E0
3.303219733E1,8.608179688E-1,7.372286797E0,5.399404526E0
3.305143639E1,9.774680734E-1,7.561319351E0,5.520840168E0
3.307067546E1,1.153340459E0,7.700701237E0,5.667400360E0
3.308991452E1,1.320239902E0,7.881958008E0,5.715256691E0
3.310915358E1,1.087537885E0,8.073383331E0,5.410171986E0
3.312839275E1,7.501499057E-1,8.294121742E0,5.041079044E0
3.314763181E1,3.906283081E-1,8.535198212E0,5.159523964E0
3.316687087E1,2.979064286E-1,8.643473625E0,5.787041664E0
3.318610994E1,3.014956415E-1,8.769096375E0,6.177670002E0
3.320534900E1,2.991028363E-3,8.854042053E0,6.251847267E0
3.322458806E1,1.196411322E-3,8.951549530E0,6.293721676E0
3.324382723E1,4.109672904E-1,8.696713448E0,6.783652306E0
3.326306629E1,2.153540403E-1,8.571090698E0,7.191628456E0
3.328230535E1,-4.642075896E-1,8.662017822E0,6.491129398E0
3.330154441E1,-1.268195987E0,8.982057571E0,6.001797199E0
3.332078348E1,-1.517647743E0,8.787641525E0,5.919843197E0
3.334002254E1,-1.341775298E0,8.011768341E0,6.649653912E0
3.335926160E1,-8.015955687E-1,7.381857872E0,7.377072334E0
3.337850077E1,-4.654040039E-1,7.264011383E0,7.517650604E0
3.339773983E1,-7.351947427E-1,7.305287361E0,7.299903870E0
3.341697889E1,-8.997012973E-1,7.358527660E0,7.244270325E0
3.343621796E1,-8.267202377E-1,7.392625332E0,6.942176819E0
3.345545702E1,-3.469592929E-1,7.240083218E0,7.012166977E0
3.347469608E1,4.073780477E-1,6.880561352E0,7.105486870E0
3.349393525E1,7.674978375E-1,6.479165554E0,6.918846607E0
3.351317431E1,8.739784956E-1,6.291328907E0,6.543771744E0
3.353241337E1,6.837490797E-1,6.343372822E0,5.935994625E0
3.355165244E1,2.123630047E-1,6.366703033E0,5.564508915E0
3.357089150E1,-1.172483116E-1,6.443273067E0,5.265406132E0
3.359013056E1,-1.268195957E-1,6.653243542E0,4.935196877E0
3.360936962E1,-2.542374134E-1,6.954739094E0,4.532006264E0
3.362860868E1,-5.150550604E-1,7.272984505E0,4.169493675E0
3.364784785E1,-7.944171429E-1,7.563712597E0,4.207778454E0
3.366708691E1,-7.184450030E-1,7.706085205E0,4.956732273E0
3.368632598E1,-3.373879790E-1,7.637291908E0,6.289534092E0
3.370556504E1,1.112662554E-1,7.587042332E0,7.332206726E0
3.372480410E1,2.811566591E-1,7.605587006E0,7.867002487E0
3.374404316E1,3.355933726E-1,7.723433495E0,8.011768341E0
3.376328223E1,5.581258535E-1,7.898109436E0,7.851449490E0
3.378252129E1,9.158528447E-1,8.117650986E0,7.772486210E0
3.380176046E1,8.506484628E-1,8.218149185E0,7.834101200E0
3.382099952E1,6.454638839E-1,8.701499939E0,7.716254711E0
3.384023858E1,7.184450030E-1,9.116056442E0,6.780063152E0
3.385947764E1,1.049252748E0,9.182456970E0,6.324828625E0
3.387871671E1,1.151545882E0,8.635697365E0,6.842874527E0
3.389795577E1,1.591227055E0,7.526025295E0,7.788637638E0
3.391719483E1,2.040479422E0,6.597609997E0,9.148957253E0
3.393643389E1,1.895713687E0,6.020939827E0,9.696315765E0
3.395567306E1,1.575075507E0,5.978467464E0,9.044271469E0
3.397491212E1,1.144367456E0,6.134000778E0,7.814360619E0
3.399415118E1,1.330409408E0,6.186044693E0,6.948757172E0
3.401339025E1,2.020140409E0,6.180660725E0,6.471388817E0
3.403262931E1,2.441277266E0,6.187839508E0,6.183053493E0
3.405186837E1,2.323430777E0,6.063412666E0,5.967699528E0
3.407110744E1,1.979462504E0,5.936593056E0,5.912664890E0
3.409034650E1,1.533201098E0,5.857629776E0,6.189633846E0
3.410958556E1,1.066002488E0,5.725426197E0,6.427719593E0
3.412882462E1,8.003991842E-1,5.700301647E0,6.572485447E0
3.414806379E1,7.567301393E-1,5.767899036E0,6.647261143E0
3.416730285E1,5.407779217E-1,5.984449387E0,6.452246189E0
3.418654191E1,2.859423161E-1,6.406184196E0,6.036493301E0
3.420578098E1,-1.489532143E-1,6.780063152E0,5.625525951E0
3.422502004E1,-1.848455518E-1,7.134799004E0,5.645864964E0
3.424425910E1,-3.188436031E-1,7.265207767E0,5.837889194E0
3.426349816E1,-5.252245665E-1,7.280162811E0,6.177071571E0
3.428273723E1,-5.922235847E-1,7.365706444E0,6.611369133E0
3.430197629E1,-6.628118753E-1,7.485347271E0,7.055835724E0
3.432121535E1,-7.573283911E-1,7.646862984E0,7.359126091E0
3.434045441E1,-4.719842672E-1,7.891529083E0,7.651050568E0
3.435969358E1,1.286142170E-1,7.992027760E0,8.133802414E0
3.437893264E1,6.873382926E-1,8.000402451E0,8.869595528E0
3.439817171E1,7.250252366E-1,8.556734085E0,8.678768158E0
3.441741077E1,1.268195957E-1,9.512666702E0,6.953542709E0
3.443664983E1,-9.511470050E-2,1.056730270E1,5.603990555E0
3.445588889E1,2.632105052E-1,9.637691498E0,6.559325218E0
3.447512796E1,1.174277663E0,7.558926582E0,9.029315948E0
3.449436702E1,2.005783558E0,6.212365627E0,1.064985561E1
3.451360608E1,1.628315806E0,6.090929985E0,1.062532902E1
3.453284514E1,4.474578202E-1,6.267998695E0,9.750752449E0
3.455208421E1,6.759724021E-2,6.092126369E0,8.905488014E0
3.457132327E1,8.297112584E-1,5.672185898E0,8.545966148E0
3.459056244E1,1.704886079E0,5.318646431E0,7.947162151E0
3.460980150E1,1.794616938E0,5.286941528E0,6.651448727E0
3.462904056E1,1.070788145E0,5.612365723E0,5.118845940E0
3.464827962E1,3.068794906E-1,5.974279881E0,4.246662140E0
3.466751869E1,-2.338984162E-1,6.402595043E0,3.826721668E0
3.468675775E1,-4.917250574E-1,6.899703979E0,3.693321705E0
3.470599681E1,-6.975077987E-1,7.453044415E0,3.812962770E0
3.472523587E1,-7.812566161E-1,7.658827305E0,4.285545349E0
3.474447494E1,-4.713860750E-1,7.830512047E0,4.925625324E0
3.476371400E1,-1.453639716E-1,7.894520283E0,5.763711452E0
3.478295306E1,-2.434697002E-1,7.856235027E0,6.303891182E0
3.480219212E1,-4.121637046E-1,8.016553879E0,6.543771744E0
3.482143118E1,-3.714857101E-1,8.328219414E0,6.652047157E0
3.484067025E1,-2.991028428E-1,8.523234367E0,6.777071953E0
3.485990931E1,-2.901297510E-1,8.487939835E0,6.838686943E0
3.487914837E1,-1.555334777E-1,8.384450912E0,6.961917400E0
3.489838744E1,-8.793623000E-2,8.327621460E0,7.015756130E0
3.491762660E1,-2.285145670E-1,8.349156380E0,6.908677101E0
3.493686566E1,-3.942175210E-1,8.410771370E0,6.738786697E0
3.495610473E1,-2.937189937E-1,8.373085022E0,6.976274490E0
3.497534379E1,-1.770688742E-1,8.277371407E0,7.567899704E0
3.499458285E1,-4.007977843E-1,8.626125336E0,7.521239758E0
3.501382191E1,-5.425725579E-1,8.989236832E0,5.796014786E0
3.503306098E1,-4.091726840E-1,9.131011009E0,4.742574692E0
3.505230004E1,8.374879137E-3,8.317451477E0,5.210371494E0
3.507153910E1,5.353940725E-1,7.430910587E0,6.292525291E0
3.509077816E1,7.585247755E-1,6.924230576E0,7.114459991E0
3.511001723E1,4.522434771E-1,6.780661106E0,7.033702374E0
3.512925629E1,-1.106680483E-1,6.674180508E0,6.439085960E0
3.514849535E1,-1.651047617E-1,6.399005890E0,6.175875187E0
3.516773441E1,1.555334777E-1,6.184848309E0,6.155536175E0
3.518697348E1,3.990031779E-1,6.146563053E0,6.025725842E0
3.520621254E1,2.039881349E-1,6.399005890E0,5.322834015E0
3.522545160E1,-1.668993831E-1,6.730412006E0,4.438685894E0
3.524469066E1,-3.900300860E-1,7.006783009E0,3.906881094E0
3.526392973E1,-3.918247223E-1,7.159923553E0,3.924827337E0
3.528316879E1,-4.636093974E-1,7.170093060E0,4.238885403E0
3.530240785E1,-5.084748268E-1,7.184450150E0,4.657629490E0
3.532164691E1,-7.920243144E-1,7.295716286E0,4.846064091E0
3.534088598E1,-1.190429211E0,7.573283672E0,4.898705959E0
3.536012504E1,-1.663011789E0,7.942376614E0,4.741377831E0
3.537936410E1,-2.091925144E0,8.230711937E0,4.685744762E0
3.539860316E1,-2.289333105E0,8.442476273E0,4.795814991E0
3.541784223E1,-2.343171597E0,8.501698494E0,5.187041283E0
3.543708129E1,-2.215753794E0,8.523832321E0,5.748157978E0
3.545632035E1,-1.844268084E0,8.610571861E0,6.231508255E0
3.547555941E1,-1.607976794E0,8.936594009E0,6.265605927E0
3.549479848E1,-1.436890006E0,9.267401695E0,6.134599209E0
3.551403754E1,-1.033101201E0,9.414560318E0,6.308676720E0
3.553327660E1,-6.071787477E-1,9.356534958E0,6.839883327E0
3.555251566E1,-1.896311939E-1,9.138788223E0,7.535596848E0
3.557175473E1,-2.303091735E-1,9.202198029E0,7.878368378E0
3.559099379E1,-5.306084156E-1,9.893723488E0,6.570092678E0
3.561023285E1,-1.158126116E0,1.061755180E1,5.073980331E0
3.562947191E1,-1.207777262E0,1.043809032E1,4.497908592E0
3.564871098E1,-5.952146053E-1,8.810971260E0,6.189035892E0
3.566795004E1,1.447657645E-1,7.267002583E0,8.044071198E0
3.568718910E1,1.154536903E-1,6.771090031E0,8.276175499E0
3.570642816E1,-9.966106415E-1,7.031309128E0,7.198806763E0
3.572566723E1,-1.847259045E0,7.205387115E0,6.273981094E0
3.574490629E1,-1.837687731E0,7.213163853E0,6.223731518E0
3.576414535E1,-1.439282775E0,7.141977310E0,6.383452415E0
3.578338441E1,-9.230313301E-1,7.015756130E0,6.451648235E0
3.580262348E1,-5.174478889E-1,6.882356167E0,6.210571289E0
3.582186254E1,-4.265206456E-1,6.863213539E0,5.687141418E0
3.584110160E1,-6.526423693E-1,6.976274490E0,5.056034088E0
3.586034066E1,-8.135597110E-1,7.137789726E0,4.828117847E0
3.587957973E1,-6.263213158E-1,7.320840836E0,4.970490932E0
3.589881879E1,-4.767699242E-1,7.410571575E0,5.117649555E0
3.591805785E1,-7.004988194E-1,7.615158081E0,4.826323509E0
3.593729691E1,-1.094118118E0,8.029714584E0,4.332803726E0
3.595653598E1,-1.306481123E0,8.470592499E0,3.968496323E0
3.597577504E1,-1.426122308E0,8.664410591E0,3.930809498E0
3.599501410E1,-1.431506157E0,8.647661209E0,4.066602230E0
3.601425316E1,-1.176072359E0,8.572885513E0,4.550550461E0
3.603349223E1,-1.007378340E0,8.613563538E0,4.757529736E0
3.605273129E1,-1.436291814E0,8.704490662E0,4.491328239E0
3.607197035E1,-1.945364833E0,8.879166603E0,4.390829563E0
3.609120941E1,-1.858624935E0,8.994620323E0,4.716851711E0
3.611044848E1,-1.642074585E0,8.897112846E0,5.532206059E0
3.612968754E1,-1.622333765E0,9.008378983E0,6.197410583E0
3.614892660E1,-1.701296926E0,9.579665184E0,6.287739754E0
3.616816566E1,-1.552343726E0,9.801599503E0,4.913661480E0
3.618740473E1,-1.471585870E0,9.885947227E0,3.473181963E0
3.620664379E1,-1.146162033E0,9.206384659E0,3.370888948E0
3.622588285E1,-7.788637877E-1,8.022536278E0,4.759324074E0
3.624512191E1,-4.959124923E-1,7.240681171E0,6.308078766E0
3.626436087E1,-6.311069727E-1,7.155735970E0,6.387042046E0
3.628359994E1,-1.170688510E0,7.460821152E0,5.371288776E0
3.630283900E1,-1.530210137E0,7.645666599E0,4.325026989E0
3.632207806E1,-1.127019525E0,7.593622684E0,4.059423447E0
3.634131712E1,-3.326023519E-1,7.425527096E0,4.433900356E0
3.636055618E1,-1.208375469E-1,7.375875950E0,4.668995380E0
3.637979525E1,-3.110669553E-1,7.640881062E0,4.435695171E0
3.639903431E1,-8.919246197E-1,7.832306862E0,4.272983074E0
3.641827337E1,-1.430309772E0,7.694719315E0,4.417748928E0
3.643751244E1,-1.621137381E0,7.527820110E0,4.907679081E0
3.645675150E1,-1.869990945E0,7.543971539E0,4.984249592E0
3.647599056E1,-2.444866419E0,7.720442295E0,4.846662045E0
3.649522962E1,-2.836092949E0,7.862216949E0,4.775475979E0
3.651446869E1,-2.965903759E0,8.042875290E0,5.005186558E0
3.653370775E1,-2.877967358E0,8.316255569E0,5.168497086E0
3.655294671E1,-3.005385160E0,8.563314438E0,5.053641319E0
3.657218577E1,-3.090928555E0,8.711668968E0,5.021936417E0
3.659142483E1,-3.174677372E0,8.877371788E0,5.287539959E0
3.661066389E1,-3.239283562E0,9.198608398E0,5.262415409E0
3.662990296E1,-3.257229805E0,9.479764938E0,4.536791801E0
3.664914202E1,-2.946162939E0,9.430712700E0,4.137788773E0
3.666838108E1,-2.948555708E0,8.958129883E0,4.130609989E0
3.668762014E1,-3.416352510E0,8.357531548E0,4.129413605E0
3.670685921E1,-3.005983353E0,8.007580757E0,4.521238327E0
3.672609827E1,-1.677966833E0,7.479365349E0,5.403591633E0
3.674533733E1,-5.659025311E-1,6.999006271E0,5.913861275E0
3.676457639E1,-7.627122402E-1,6.919445038E0,5.361119270E0
3.678381546E1,-2.093121529E0,7.096513748E0,4.874179840E0
3.680305441E1,-2.300698996E0,6.744768620E0,5.803193092E0
3.682229348E1,-5.503492057E-2,6.255436420E0,8.478368759E0
3.684153254E1,5.335994363E-1,5.383252621E0,1.146879864E1
3.686077160E1,-2.518445730E0,6.233901024E0,1.192283726E1
3.688001066E1,-5.522036552E0,9.559326172E0,8.498109818E0
3.689924973E1,-4.983651161E0,1.186182022E1,5.019543648E0
3.691848879E1,-2.955136061E0,1.095733356E1,5.937191010E0
3.693772785E1,-2.172683001E0,9.251250267E0,7.411170006E0
3.695696691E1,-1.828714728E0,8.743971825E0,7.017550468E0
3.697620598E1,-1.593619823E0,8.635098457E0,5.911468506E0
3.699544504E1,-1.603789330E0,8.133802414E0,6.058627129E0
3.701468400E1,-1.876571178E0,7.257431030E0,6.091528416E0
3.703392306E1,-2.289931297E0,6.588637352E0,5.660222054E0
3.705316212E1,-2.921636343E0,6.075376511E0,5.248656273E0
3.707240119E1,-3.215953588E0,5.627320766E0,5.495715618E0
3.709164025E1,-2.820539713E0,5.646463394E0,6.296114445E0
3.711087931E1,-2.321636200E0,5.982655048E0,6.463014126E0
3.713011837E1,-1.543370605E0,6.088537216E0,6.636493683E0
3.714935744E1,-6.867401004E-1,5.988636971E0,6.932605267E0
3.716859650E1,-3.786641955E-1,6.068796635E0,6.578467846E0
3.718783546E1,-6.699903309E-2,6.553941250E0,6.084948063E0
3.720707452E1,2.434697002E-1,7.005586624E0,6.292525291E0
3.722631358E1,5.060819983E-1,7.188637257E0,6.850651264E0
3.724555264E1,8.967102766E-1,7.341778278E0,7.001399040E0
3.726479171E1,7.268198729E-1,7.759325504E0,6.419344902E0
3.728403077E1,-1.405783296E-1,8.368298531E0,5.851049423E0
3.730326983E1,-5.934200287E-1,9.209376335E0,6.151348591E0
3.732250889E1,-3.409772366E-2,9.997811317E0,5.702694416E0
3.734174796E1,3.104687333E-1,9.786046028E0,5.565107346E0
3.736098691E1,2.985046208E-1,8.645268440E0,6.839285374E0
3.738022598E1,9.565308690E-1,7.613961697E0,8.085946083E0
3.739946504E1,1.488335729E0,7.259823799E0,8.683553696E0
3.741870410E1,1.235892892E0,7.412964344E0,8.231309891E0
3.743794316E1,4.995017350E-1,7.607381344E0,7.008577347E0
3.745718223E1,1.106680483E-1,7.689335346E0,6.027520180E0
3.747642129E1,1.262213886E-1,7.462615490E0,5.667998791E0
3.749566025E1,4.378865361E-1,7.072585583E0,6.015556335E0
3.751489931E1,9.918249846E-1,6.759125710E0,6.418746948E0
3.753413837E1,1.128814101E0,6.593422890E0,6.224329948E0
3.755337744E1,6.364908218E-1,6.622735023E0,5.277370453E0
3.757261650E1,8.374879509E-2,6.747161865E0,4.556532383E0
3.759185556E1,3.050848842E-2,6.930810928E0,4.241278172E0
3.761109462E1,-5.324030295E-2,7.186842918E0,4.141377926E0
3.763033358E1,-2.273181453E-2,7.427919865E0,4.179663181E0
3.764957264E1,-1.579262912E-1,7.564310551E0,4.265206337E0
3.766881171E1,-3.146561682E-1,7.685148239E0,4.226921082E0
3.768805077E1,-3.984049559E-1,7.768298626E0,4.372285366E0
3.770728983E1,-3.750749528E-1,7.834699631E0,4.692923546E0
3.772652889E1,-3.655036688E-1,7.880761147E0,5.156532764E0
3.774576796E1,-5.078766346E-1,8.192426682E0,5.206781864E0
3.776500691E1,-6.161518097E-1,8.544171333E0,5.249254704E0
3.778424598E1,-5.222335458E-1,8.846863747E0,5.234897614E0
3.780348504E1,-2.201396823E-1,9.026325226E0,5.231906891E0
3.782272410E1,-8.614161611E-2,8.968897820E0,5.750551224E0
3.784196316E1,-5.922235921E-2,8.885149002E0,6.398407936E0
3.786120223E1,7.836493850E-2,8.937192917E0,7.290332317E0
3.788044118E1,-3.026920557E-1,9.734002113E0,7.612166882E0
3.789968025E1,-8.135597110E-1,1.043210888E1,5.629713535E0
3.791891931E1,-1.094716311E0,1.076291656E1,4.077968121E0
3.793815837E1,-7.262216806E-1,9.574281693E0,5.185246468E0
3.795739744E1,1.800599098E-1,8.091329575E0,7.035496712E0
3.797663650E1,8.189435601E-1,7.475177765E0,8.045268059E0
3.799587546E1,1.501496136E-1,7.756334782E0,6.942774773E0
3.801511452E1,-1.159322619E0,8.014161110E0,5.529813290E0
3.803435358E1,-1.723430514E0,8.012366295E0,5.075775146E0
3.805359264E1,-1.314257860E0,7.805985451E0,5.461019516E0
3.807283171E1,-8.327022791E-1,7.492526054E0,5.633302689E0
3.809207077E1,-4.959124923E-1,7.148557663E0,5.620141983E0
3.811130983E1,-2.309073806E-1,6.793821812E0,6.002395630E0
3.813054879E1,3.248256743E-1,6.750751019E0,6.203392506E0
3.814978785E1,4.253242314E-1,6.772286415E0,6.131010056E0
3.816902691E1,1.746760458E-1,6.840481758E0,5.723033428E0
3.818826598E1,-2.452643216E-2,7.048657417E0,5.053043365E0
3.820750504E1,-4.905286431E-2,7.484150887E0,4.871188641E0
3.822674410E1,2.781656384E-1,8.095517159E0,4.641477585E0
3.824598306E1,3.672982752E-1,8.343772888E0,4.402793884E0
3.826522212E1,2.279163599E-1,8.475975990E0,4.326821327E0
3.828446119E1,1.316052489E-2,8.537590981E0,4.501497746E0
3.830370025E1,7.118647546E-2,8.468797684E0,4.971687317E0
3.832293931E1,2.171486616E-1,8.318049431E0,5.611168861E0
3.834217837E1,9.690931439E-2,8.149953842E0,5.926423550E0
3.836141733E1,-1.226321608E-1,8.140980721E0,5.866602898E0
3.838065639E1,-3.571287692E-1,8.259425163E0,5.534000397E0
3.839989546E1,-2.751746178E-1,8.504690170E0,5.569294930E0
3.841913452E1,2.273181453E-2,8.584251404E0,6.032305717E0
3.843837358E1,6.245267391E-1,8.471190453E0,6.790830612E0
3.845761264E1,9.625129104E-1,8.582456589E0,7.671389580E0
3.847685160E1,8.835497499E-1,9.378069878E0,7.506284714E0
3.849609066E1,9.900303483E-1,9.801599503E0,5.871986866E0
3.851532973E1,1.191027522E0,1.016231823E1,5.196014404E0
3.853456879E1,1.897508383E0,9.704092026E0,5.299503803E0
3.855380785E1,2.490330219E0,8.993423462E0,5.827121258E0
3.857304691E1,2.665604353E0,8.379665375E0,6.564708710E0
3.859228598E1,3.081357241E0,7.893323898E0,6.926024914E0
3.861152494E1,3.037688255E0,7.542177200E0,6.756134510E0
3.863076400E1,2.568695068E0,7.261020184E0,6.097510338E0
3.865000306E1,2.309672117E0,7.138986588E0,5.422734261E0
3.866924212E1,2.218744755E0,7.130013466E0,4.639084816E0
3.868848118E1,1.840080619E0,7.198208809E0,4.009174347E0
3.870772025E1,1.518245935E0,7.177869797E0,3.561716557E0
3.872695921E1,1.097707391E0,7.055835724E0,3.378067255E0
3.874619827E1,6.478567123E-1,6.982256413E0,3.271586657E0
3.876543733E1,1.052841991E-1,6.933203697E0,3.325425386E0
3.878467639E1,-2.679961324E-1,6.957131863E0,3.624528170E0
3.880391546E1,-5.808576941E-1,7.165307522E0,3.897309780E0
3.882315452E1,-7.495517135E-1,7.481160164E0,4.018147469E0
3.884239348E1,-8.913264275E-1,7.770093441E0,3.949353695E0
3.886163254E1,-9.613165259E-1,7.975875854E0,3.863212109E0
3.888087160E1,-1.010967612E0,8.134400368E0,3.893720627E0
3.890011066E1,-8.751748800E-1,8.389236450E0,4.198805332E0
3.891934973E1,-8.817551732E-1,8.481958389E0,4.704289436E0
3.893858879E1,-1.070189953E0,8.729017258E0,4.881358147E0
3.895782785E1,-1.392024517E0,9.089735031E0,4.974678040E0
3.897706681E1,-1.526620865E0,9.527023315E0,5.096114159E0
3.899630587E1,-1.520040631E0,9.880562782E0,5.493920803E0
3.901554494E1,-1.511067510E0,9.925428391E0,6.223731518E0
3.903478400E1,-1.893919110E0,1.049910736E1,6.540780544E0
3.905402306E1,-2.581855536E0,1.119541931E1,5.520241737E0
3.907326212E1,-2.520838737E0,1.179721355E1,4.377070904E0
3.909250108E1,-2.059622049E0,1.098604679E1,4.712664127E0
3.911174014E1,-1.314856052E0,9.258428574E0,6.363711834E0
3.913097921E1,-7.208378315E-1,8.059624672E0,7.673183918E0
3.915021827E1,-9.266205430E-1,7.749155998E0,7.788637638E0
3.916945733E1,-1.543968797E0,7.889734268E0,6.960721016E0
3.918869639E1,-1.990230203E0,7.999206066E0,6.023332596E0
3.920793546E1,-2.049452543E0,7.870592117E0,5.560919762E0
3.922717441E1,-1.853839397E0,7.707880020E0,5.291129112E0
3.924641348E1,-1.515254974E0,7.590631485E0,4.861019135E0
3.926565254E1,-1.153340459E0,7.393223763E0,4.802394867E0
3.928489160E1,-9.302098155E-1,7.088737011E0,4.926223755E0
3.930413066E1,-7.082754970E-1,6.908677101E0,5.020740032E0
3.932336973E1,-4.462614357E-1,6.934998035E0,4.985445976E0
3.934260879E1,-4.546363056E-1,7.086344242E0,4.907081127E0
3.936184775E1,-4.947160780E-1,7.174878597E0,4.834698200E0
3.938108681E1,-5.611169338E-1,7.355536938E0,4.755136967E0
3.940032587E1,-7.477570772E-1,7.658827305E0,4.542773724E0
3.941956494E1,-9.355936646E-1,8.065607071E0,4.337589264E0
3.943880400E1,-9.008977413E-1,8.449056625E0,4.235894203E0
3.945804306E1,-7.830511928E-1,8.780462265E0,4.271188259E0
3.947728212E1,-6.334998012E-1,8.950352669E0,4.362713814E0
3.949652108E1,-4.289134443E-1,9.090332985E0,4.625326157E0
3.951576014E1,-1.208375469E-1,9.154341698E0,4.937589645E0
3.953499921E1,1.854437590E-1,9.263813019E0,5.290530682E0
3.955423827E1,1.710868180E-1,9.343374252E0,5.219942570E0
3.957347733E1,9.870393574E-2,9.483952522E0,5.223531723E0
3.959271639E1,4.546362907E-2,9.518050194E0,5.255835056E0
3.961195546E1,1.375873089E-1,9.381659508E0,5.784050465E0
3.963119441E1,4.971089065E-1,9.316454887E0,6.746563435E0
3.965043348E1,4.510470629E-1,9.674779892E0,6.896114826E0
3.966967254E1,3.966103494E-1,9.895518303E0,5.581857204E0
3.968891160E1,3.463610709E-1,9.731011391E0,4.891527653E0
3.970815066E1,6.472585201E-1,8.916254997E0,5.375475883E0
3.972738973E1,1.343569875E0,7.777271748E0,6.407979012E0
3.974662879E1,1.621735573E0,6.910471916E0,7.124031067E0
3.976586775E1,1.198804140E0,6.768098831E0,6.818946362E0
3.978510681E1,5.688936114E-1,7.106084824E0,5.680561066E0
3.980434587E1,1.944168359E-1,7.283154011E0,4.562514782E0
3.982358494E1,2.578266263E-1,7.183851719E0,4.401597023E0
3.984282400E1,7.501499057E-1,7.048657417E0,4.607978344E0
3.986206306E1,1.307079315E0,7.136593342E0,4.557728767E0
3.988130212E1,1.317847013E0,7.362715244E0,4.108476639E0
3.990054118E1,7.028916478E-1,7.532605648E0,3.756731510E0
3.991978014E1,8.015955985E-2,7.505686283E0,3.501297712E0
3.993901921E1,6.221338734E-2,7.451249599E0,3.754936934E0
3.995825827E1,2.787638307E-1,7.237092018E0,4.511667252E0
3.997749733E1,2.398804724E-1,7.299903870E0,4.977071285E0
3.999673639E1,-5.862415582E-2,7.454240799E0,5.033900738E0
4.001597546E1,-1.268195957E-1,7.795815945E0,4.976472855E0
4.003521452E1,-2.512463629E-1,8.121838570E0,4.875376225E0
4.005445358E1,-3.314059377E-1,8.413164139E0,4.957928658E0
4.007369254E1,-1.292124242E-1,8.580661774E0,5.167898655E0
4.009293160E1,1.513460279E-1,8.786444664E0,5.246861935E0
4.011217066E1,2.111666054E-1,9.074779510E0,5.306084156E0
4.013140973E1,7.776673883E-2,9.299705505E0,5.110470772E0
4.015064879E1,-1.166501045E-1,9.547362328E0,5.099703312E0
4.016988785E1,-1.256231815E-1,9.662218094E0,5.154139996E0
