"Time (s)","Gyroscope x (rad/s)","Gyroscope y (rad/s)","Gyroscope z (rad/s)"
3.606933300E-2,-1.538615674E-1,-1.399643868E-1,2.567922771E-1
5.530839600E-2,-2.548069656E-1,-1.799760312E-1,2.552651167E-1
7.454745800E-2,-3.192532063E-1,-2.893971838E-2,2.499200553E-1
9.378652100E-2,-3.673588037E-1,1.506545246E-1,2.683987021E-1
1.130254790E-1,-3.833940029E-1,1.868482679E-1,2.897789776E-1
1.322645420E-1,-3.869064748E-1,1.343138963E-1,2.902371287E-1
1.515036040E-1,-3.766745031E-1,1.202640012E-1,2.784779668E-1
1.707426670E-1,-3.664425015E-1,1.532506943E-1,2.989419401E-1
1.899817290E-1,-3.710239828E-1,2.393826395E-1,3.536143601E-1
2.092207920E-1,-3.352884054E-1,3.209330738E-1,4.171442986E-1
2.284598540E-1,-2.558759749E-1,3.526980579E-1,4.782307744E-1
2.476988130E-1,-1.746309698E-1,3.018435538E-1,4.941132367E-1
2.669378750E-1,-1.512653977E-1,1.275943816E-1,4.924333692E-1
2.861769380E-1,-1.964693815E-1,-1.275180187E-2,4.684569240E-1
3.054160000E-1,-2.326631248E-1,-3.459021822E-2,4.348593652E-1
3.246550630E-1,-2.057850659E-1,-2.099847607E-2,4.796051979E-1
3.438941250E-1,-1.605810821E-1,1.366809942E-2,5.185478330E-1
3.631330830E-1,-1.740200967E-1,-6.696604937E-2,4.765508771E-1
3.823721460E-1,-2.337321341E-1,-4.056905806E-1,4.628064334E-1
4.016112080E-1,-2.997055352E-1,-8.493311405E-1,4.583776593E-1
4.208502710E-1,-3.397171795E-1,-1.357417941E0,4.282925725E-1
4.400893330E-1,-4.362338185E-1,-1.848858595E0,4.243219495E-1
4.593283960E-1,-6.294198036E-1,-1.964922905E0,4.530325830E-1
4.785673540E-1,-8.554397821E-1,-1.727143764E0,5.251146555E-1
4.978064170E-1,-9.030871987E-1,-1.261512160E0,6.248382926E-1
5.170454790E-1,-7.699186802E-1,-6.239219904E-1,7.390699983E-1
5.362845420E-1,-4.869355857E-1,-9.659299254E-2,7.951168418E-1
5.555236040E-1,-1.611919403E-1,-2.008217946E-2,6.984475255E-1
5.747625630E-1,-4.512763396E-2,-7.063124329E-2,5.738310814E-1
5.940016250E-1,-1.098793000E-1,-1.810450554E-1,5.509236455E-1
6.132406880E-1,-1.669951528E-1,-5.135082006E-1,5.327504277E-1
6.324797500E-1,-1.572213173E-1,-8.810960650E-1,4.745655656E-1
6.517188130E-1,-1.370627880E-1,-6.446914077E-1,4.721221030E-1
6.709577710E-1,-1.397353224E-2,-1.066722646E-1,5.048033595E-1
6.901968330E-1,2.074649483E-1,6.788235158E-2,5.187005401E-1
7.094358960E-1,3.714821339E-1,5.887209252E-2,4.702895284E-1
7.286749580E-1,4.689150751E-1,5.917752534E-2,5.924624801E-1
7.479140210E-1,5.512291193E-1,9.705114365E-2,8.662826419E-1
7.671529790E-1,5.422188640E-1,3.711767197E-1,1.029078126E0
7.863920420E-1,4.840339720E-1,1.162399292E0,1.067409873E0
8.056311040E-1,5.492438078E-1,1.585575938E0,1.038546443E0
8.248701670E-1,6.651554108E-1,1.692477226E0,9.568433166E-1
8.441092290E-1,7.641154528E-1,1.462944746E0,9.342412949E-1
8.633481880E-1,8.137482405E-1,1.190804482E0,9.569960237E-1
8.825872500E-1,8.221476078E-1,1.291291833E0,1.054581642E0
9.018263130E-1,8.562033176E-1,1.337717533E0,8.962149620E-1
9.210653750E-1,8.748347163E-1,4.192823172E-1,6.688205600E-1
9.403044380E-1,9.931897521E-1,-1.061377581E-2,4.273762703E-1
9.595433960E-1,1.127274632E0,1.799760312E-1,1.427132785E-1
9.787824580E-1,1.079779863E0,-1.926514804E-1,-1.837939471E-1
9.980215210E-1,9.933425188E-1,-4.221839309E-1,-1.178205460E-1
1.017260583E0,9.498183727E-1,3.058141768E-1,1.972329617E-1
1.036499542E0,7.995456457E-1,9.912044406E-1,2.635118067E-1
1.055738604E0,5.619192123E-1,1.010599375E0,1.940259188E-1
1.074978292E0,2.925278842E-1,9.036980867E-1,2.939786762E-2
1.094216729E0,-5.077813566E-2,1.992182732E-1,-1.448513120E-1
1.113455792E0,-3.316232264E-1,-3.989710510E-1,-3.757582009E-1
1.132694750E0,-2.432005405E-1,-3.420079052E-1,-4.151589870E-1
1.151933813E0,-1.824958436E-2,2.756527252E-2,-2.864192128E-1
1.171172875E0,1.219438836E-1,2.433532625E-1,-8.544471115E-2
1.190411938E0,1.144607887E-1,1.483637840E-1,3.504836559E-2
1.209650896E0,-1.397353224E-2,-1.336266659E-2,-2.664897591E-2
1.228889958E0,-5.871937796E-2,-3.436114406E-3,-1.446985900E-1
1.248129021E0,3.657552972E-2,-3.275762498E-2,-1.217911690E-1
1.267368083E0,1.381317973E-1,-1.909715980E-1,-2.832885459E-2
1.286607042E0,2.311359644E-1,-2.700785995E-1,1.565340906E-2
1.305846104E0,3.554469347E-1,-2.338848561E-1,2.710712515E-2
1.325085167E0,3.745364547E-1,-2.509890795E-1,-3.229947388E-2
1.344324229E0,1.376736462E-1,-1.682168841E-1,-1.512653977E-1
1.363563188E0,-9.063705802E-2,6.207913160E-2,-1.737146676E-1
1.382802250E0,-1.424078494E-1,2.951240540E-1,-1.111010313E-1
1.402041313E0,-8.300124854E-2,2.474765927E-1,-1.669951528E-1
1.421280375E0,3.657552972E-2,9.995274991E-2,-2.558759749E-1
1.440519438E0,7.964149863E-2,-7.200568914E-2,-3.174206018E-1
1.459758396E0,6.375901401E-2,-3.003163934E-1,-2.969566286E-1
1.478997458E0,7.108938694E-2,-5.191587210E-1,-2.315941155E-1
1.498236521E0,1.390480995E-1,-5.550470352E-1,-1.344666034E-1
1.517475583E0,2.073122412E-1,-5.000692010E-1,7.101302966E-3
1.536714542E0,2.734383345E-1,-5.249619484E-1,8.361211419E-2
1.555953604E0,3.753000498E-1,-5.231293440E-1,6.498073786E-2
1.575192667E0,5.162571073E-1,-3.212385178E-1,6.635518372E-2
1.594431729E0,5.492438078E-1,-1.405752599E-1,8.223766834E-2
1.613670688E0,4.844921231E-1,-1.718057133E-2,8.498656005E-2
1.632909750E0,3.621664643E-1,1.387426704E-1,6.192641705E-2
1.652148813E0,1.981492639E-1,3.197113574E-1,1.733328775E-2
1.671387875E0,1.188895553E-1,6.245328784E-1,4.589121789E-2
1.690626833E0,7.429642975E-2,8.377246857E-1,6.467530876E-2
1.709865896E0,-2.787070535E-2,9.093486071E-1,5.444332212E-2
1.729104958E0,-9.903645515E-2,8.839976788E-1,1.190422773E-1
1.748344021E0,-5.642863363E-2,7.883973718E-1,1.292742640E-1
1.767583083E0,8.804088831E-2,8.383355737E-1,7.857248187E-2
1.786822042E0,3.323867917E-1,1.050000191E0,3.397935256E-2
1.806061104E0,5.828413367E-1,9.090431333E-1,1.901316643E-2
1.825300167E0,5.127446055E-1,2.538906634E-1,-1.153007243E-2
1.844539229E0,1.957058012E-1,-3.778962195E-1,3.474293277E-2
1.863778188E0,-8.315397054E-2,-4.458549321E-1,1.485165060E-1
1.883017250E0,-2.273180634E-1,-7.887791097E-2,2.441168427E-1
1.902256313E0,-3.136027157E-1,3.191004992E-1,2.971093655E-1
1.921495375E0,-3.693441153E-1,3.699549735E-1,2.590830326E-1
1.940734333E0,-3.691914082E-1,2.851974964E-1,1.697440445E-1
1.959973396E0,-3.337612450E-1,2.451858521E-1,9.521854669E-2
1.979212458E0,-2.815323174E-1,2.293033600E-1,1.412624773E-2
1.998451521E0,-2.552651167E-1,2.042579055E-1,-1.779143699E-2
2.017690479E0,-2.827540338E-1,1.431714296E-1,1.382081583E-2
2.036929542E0,-3.308596313E-1,-5.879573524E-3,3.214675933E-2
2.056168604E0,-3.218493760E-1,-1.103374511E-1,4.237874225E-2
2.075407667E0,-2.537379563E-1,-2.206749097E-2,7.521272451E-2
2.094646729E0,-2.424369603E-1,1.344666034E-1,9.995274991E-2
2.113885688E0,-2.418260872E-1,1.816559136E-1,5.978839099E-2
2.133124750E0,-2.155589163E-1,7.475458086E-2,2.420551702E-2
2.152363813E0,-1.434768587E-1,-3.061959706E-2,9.926552884E-4
2.171602875E0,-7.765618712E-2,-4.451677203E-2,-3.000873141E-2
2.190841833E0,-1.056032479E-1,-4.405862093E-2,-4.176788032E-2
2.210080896E0,-1.640935540E-1,-1.123227626E-1,-6.490438245E-3
2.229319958E0,-1.495855153E-1,-3.180314898E-1,2.939786762E-2
2.248559021E0,-6.543888897E-2,-4.408152997E-1,-2.909243479E-2
2.267797979E0,8.933897130E-3,-3.452149630E-1,-1.318704337E-1
2.287037042E0,4.619665071E-2,-2.002872825E-1,-2.302196622E-1
2.306276104E0,7.964149863E-2,-1.943313628E-1,-3.094793558E-1
2.325515167E0,8.636100590E-2,-2.688568532E-1,-3.406334817E-1
2.344754229E0,8.910989761E-2,-3.161988854E-1,-2.855029404E-1
2.363993188E0,1.937204897E-1,-3.198640645E-1,-2.111301422E-1
2.383232250E0,2.971093655E-1,-3.939314187E-1,-1.628718227E-1
2.402471313E0,1.341611743E-1,-5.063305497E-1,-9.888373315E-2
2.421710375E0,-1.366046369E-1,-4.003455043E-1,-3.130682046E-3
2.440949333E0,-2.502254844E-1,-1.144607887E-1,6.589704007E-2
2.460188396E0,-1.634826809E-1,8.208495378E-2,2.863428742E-2
2.479427458E0,8.399390499E-4,-1.977674663E-2,-6.375901401E-2
2.498666521E0,1.321758628E-1,-2.054796368E-1,-1.457676142E-1
2.517905583E0,1.254563481E-1,-4.237110913E-1,-2.282343507E-1
2.537144542E0,5.574141163E-3,-4.780780375E-1,-2.468657345E-1
2.556383604E0,-1.724929363E-1,-3.077994883E-1,-2.085339576E-1
2.575622667E0,-3.026071489E-1,-4.696023092E-2,-1.538615674E-1
2.594861729E0,-3.209330738E-1,1.563050300E-1,-1.712712198E-1
2.614100688E0,-2.685514390E-1,1.753945500E-1,-2.190713882E-1
2.633339750E0,-2.057850659E-1,6.436987966E-2,-1.897498667E-1
2.652578813E0,-1.686750352E-1,-6.727148592E-2,-8.697187155E-2
2.671817875E0,-1.202640012E-1,-9.964732081E-2,6.185005885E-3
2.691056938E0,-3.291033953E-2,-5.337430909E-2,5.093085021E-2
2.710295896E0,5.291616172E-2,-1.091920771E-2,5.077813566E-2
2.729534958E0,9.414953738E-2,-4.024071619E-2,3.275762498E-2
2.748774021E0,1.088102907E-1,-3.428478539E-2,4.405862093E-2
2.768013083E0,8.620829135E-2,-2.893971838E-2,7.857248187E-2
2.787252146E0,4.054614902E-2,-1.145371469E-3,9.430225194E-2
2.806491104E0,4.207331315E-2,1.366046369E-1,6.498073786E-2
2.825730167E0,9.735657275E-2,3.105483949E-1,1.931859925E-2
2.844969229E0,1.340084672E-1,4.108829200E-1,-1.198822167E-2
2.864208292E0,9.674570709E-2,3.693441153E-1,1.076649129E-2
2.883447354E0,4.711294547E-2,2.274707705E-1,6.849320978E-2
2.902686313E0,7.567087561E-2,9.231694043E-2,1.066722646E-1
2.921925375E0,2.180023640E-1,1.424078494E-1,1.269835234E-1
2.941164438E0,4.734965563E-1,4.304305911E-1,1.459203213E-1
2.960403500E0,5.965858102E-1,3.132972717E-1,1.220965981E-1
2.979642563E0,2.902371287E-1,-3.821722865E-1,1.321758628E-1
2.998881521E0,-1.824194938E-1,-5.661953092E-1,2.774089575E-1
3.018120583E0,-3.943895698E-1,-2.374736778E-2,4.661661983E-1
3.037359646E0,-2.186132371E-1,6.486620307E-1,4.999164641E-1
3.056598708E0,9.918916970E-2,8.365029693E-1,3.446041048E-1
3.075837771E0,2.581667304E-1,4.942659736E-1,2.244164497E-1
3.095076729E0,2.540434003E-1,1.081994250E-1,2.334267050E-1
3.114315792E0,1.837939471E-1,-7.521272451E-2,3.154352903E-1
3.133554854E0,8.819360286E-2,-9.995274991E-2,3.827831447E-1
3.152793917E0,-1.855501719E-2,-3.993528336E-2,4.234056473E-1
3.172032979E0,-1.178205460E-1,6.177370250E-2,4.394408464E-1
3.191272042E0,-1.556941569E-1,1.625663936E-1,4.201986194E-1
3.210511000E0,-1.295796931E-1,2.016617358E-1,3.618610203E-1
3.229750063E0,-9.491311759E-2,1.889862865E-1,2.851974964E-1
3.248989125E0,-7.108938694E-2,2.022725940E-1,2.146426141E-1
3.268228188E0,-4.024071619E-2,1.979965419E-1,1.711184978E-1
3.287467250E0,4.207331315E-2,1.581376195E-1,1.333975941E-1
3.306706313E0,1.352301836E-1,9.857830405E-2,6.711876392E-2
3.325945271E0,1.741728187E-1,3.184132650E-2,-5.268708803E-3
3.345184333E0,1.271362305E-1,-2.481638081E-2,-4.115701467E-2
3.364423396E0,6.604975462E-2,-3.077231348E-2,-6.101011857E-2
3.383662458E0,9.185878932E-2,-2.130390890E-2,-1.112537459E-1
3.402901521E0,1.964693815E-1,-7.536543906E-2,-1.874591261E-1
3.422140583E0,2.757290900E-1,-1.961639524E-1,-2.575558722E-1
3.441379542E0,2.522107959E-1,-3.087157905E-1,-3.114646673E-1
3.460618604E0,1.532506943E-1,-3.264308572E-1,-3.368155658E-1
3.479857667E0,2.634354308E-2,-2.172387838E-1,-3.119228184E-1
3.499096729E0,-4.497491941E-2,-5.047270283E-2,-2.887099683E-1
3.518335792E0,5.887209252E-2,1.015562657E-2,-3.152825832E-1
3.537574854E0,1.772271395E-1,-1.870009750E-1,-3.520871997E-1
3.556813917E0,6.604975462E-2,-5.145772099E-1,-3.836994469E-1
3.576052875E0,-1.505018175E-1,-6.225475669E-1,-3.255145550E-1
3.595291938E0,-3.388008773E-1,-4.278344214E-1,-2.267071903E-1
3.614531000E0,-3.754527569E-1,-9.934188426E-2,-2.248746008E-1
3.633770063E0,-2.575558722E-1,9.506583214E-2,-3.139081299E-1
3.653009125E0,-1.146135032E-1,1.100320220E-1,-3.588066995E-1
3.672248188E0,-6.696604937E-2,-1.443168055E-2,-3.207803667E-1
3.691487250E0,-1.074358448E-1,-1.868482679E-1,-2.063959390E-1
3.710726208E0,-1.743255407E-1,-3.056614697E-1,-8.468113095E-2
3.729965271E0,-1.839466542E-1,-2.975675166E-1,-1.000291109E-2
3.749204333E0,-1.422551423E-1,-2.245691717E-1,-3.436114406E-3
3.768443396E0,-9.659299254E-2,-1.460730433E-1,-3.321577236E-2
3.787682458E0,-1.242346242E-1,-1.517235339E-1,-4.894553870E-2
3.806921521E0,-1.853211075E-1,-1.621082425E-1,-1.443168055E-2
3.826160583E0,-2.187659442E-1,-9.934188426E-2,3.657552972E-2
3.845399646E0,-1.636354029E-1,-7.559451740E-3,1.901316643E-2
3.864638604E0,-5.459604040E-2,6.131555140E-2,-3.504836559E-2
3.883877667E0,2.802342176E-2,8.407026529E-2,-5.688678101E-2
3.903116729E0,4.680751264E-2,4.589121789E-2,-4.222602770E-2
3.922355792E0,4.207331315E-2,-2.420551702E-2,-6.490438245E-3
3.941594854E0,3.611737862E-2,-4.268417507E-2,-3.741546767E-3
3.960833917E0,5.841394514E-2,1.231656075E-1,-5.581776798E-2
3.980072979E0,8.529199660E-2,4.151589870E-1,-8.498656005E-2
3.999312042E0,8.743002266E-2,5.475639105E-1,-6.895136088E-2
4.018551104E0,4.925097153E-2,3.843103051E-1,-1.458439697E-2
4.037790063E0,2.619082667E-2,1.474474818E-1,5.367974192E-2
4.057029125E0,1.399643868E-1,1.460730433E-1,1.033125073E-1
4.076268188E0,4.319577515E-1,3.406334817E-1,1.002581790E-1
4.095507250E0,7.738893032E-1,4.968621433E-1,6.223184988E-2
4.114746313E0,8.004619479E-1,2.024253160E-1,3.688096255E-2
4.133985375E0,3.291797638E-1,-5.135082006E-1,5.535962060E-2
4.153224438E0,-1.758527011E-1,-5.125918984E-1,1.758527011E-1
4.172463500E0,-4.504364133E-1,1.152243689E-1,2.610683441E-1
4.191702563E0,-4.177551568E-1,7.592285872E-1,1.619555205E-1
4.210941625E0,-1.721875072E-1,1.068020701E0,-9.239329956E-3
4.230180688E0,3.428478539E-2,1.005865216E0,-6.391172856E-2
4.249419646E0,7.551816106E-2,6.523272395E-1,3.588830587E-3
4.268658708E0,3.810269013E-2,2.935968935E-1,1.231656075E-1
4.287897771E0,1.947131567E-2,1.311068535E-1,2.312886715E-1
4.307136833E0,-6.337722298E-3,1.237764731E-1,3.117701113E-1
4.326375896E0,-7.796161622E-2,1.462257504E-1,3.927097023E-1
4.345614958E0,-1.272889525E-1,1.114064679E-1,4.319577515E-1
4.364854021E0,-1.143080741E-1,3.627009690E-2,4.227947891E-1
4.384093083E0,-7.414371520E-2,1.015562657E-2,3.490328491E-1
4.403332146E0,-4.619665071E-2,3.871355578E-2,2.596938908E-1
4.422571208E0,-6.146826968E-2,9.934188426E-2,1.844048053E-1
4.441810271E0,-6.299543381E-2,1.961639524E-1,1.411861181E-1
4.461049333E0,-8.269581944E-2,2.593884468E-1,1.349247545E-1
4.480288292E0,-8.544471115E-2,2.603047490E-1,1.416442692E-1
4.499527354E0,-7.414371520E-2,1.773798615E-1,1.463784724E-1
4.518766417E0,-6.116283685E-2,9.353867173E-2,1.595120728E-1
4.538005479E0,-4.741837829E-2,6.772962958E-2,1.448513120E-1
4.557244542E0,3.283398226E-3,1.278998107E-1,1.147662178E-1
4.576483604E0,1.016326249E-1,1.866955459E-1,1.020907760E-1
4.595722667E0,1.967748106E-1,1.433241516E-1,1.027016416E-1
4.614961729E0,2.624427676E-1,8.376483619E-2,1.158352345E-1
4.634200792E0,2.798524201E-1,7.689260691E-2,1.398116797E-1
4.653439854E0,2.554178238E-1,1.202640012E-1,1.735619605E-1
4.672678917E0,2.147953212E-1,1.324812919E-1,2.111301422E-1
4.691917979E0,1.950949430E-1,1.624136716E-1,2.464075834E-1
4.711157042E0,2.073122412E-1,1.923460513E-1,2.680932879E-1
4.730396104E0,6.696604937E-2,9.980003536E-2,2.647335231E-1
4.749635167E0,-2.181550860E-1,8.300124854E-2,2.986365259E-1
4.768874125E0,-4.443277717E-1,3.649153411E-1,3.809505403E-1
4.788113188E0,-4.391354322E-1,7.942005992E-1,4.739547074E-1
4.807352250E0,-2.297615111E-1,9.869284034E-1,4.999164641E-1
4.826591313E0,5.535962060E-2,7.987820506E-1,4.925860763E-1
4.845830375E0,2.161697745E-1,3.942368627E-1,5.116755962E-1
4.865069438E0,2.065486610E-1,1.402698308E-1,5.646681190E-1
4.884308500E0,1.063668281E-1,1.563050300E-1,5.996401310E-1
4.903547563E0,-3.581194952E-2,3.293324709E-1,5.820778012E-1
4.922786625E0,-1.459203213E-1,5.058723688E-1,5.112174749E-1
4.942025688E0,-2.068540901E-1,6.248382926E-1,4.392881393E-1
4.961264750E0,-1.967748106E-1,7.949641347E-1,4.174497128E-1
4.980503813E0,-1.495855153E-1,9.018654823E-1,3.925569654E-1
4.999742875E0,-9.506583214E-2,9.111811519E-1,3.691914082E-1
5.018981938E0,-5.887209252E-2,8.989638686E-1,3.861429095E-1
5.038221000E0,-2.741255611E-2,8.723912835E-1,4.492146969E-1
5.057460063E0,4.573849961E-2,7.613666058E-1,5.173261166E-1
5.076699125E0,1.230128929E-1,5.855902433E-1,5.486329198E-1
5.095938188E0,1.544724256E-1,4.667770565E-1,5.521454215E-1
5.115177250E0,1.016326249E-1,4.495201111E-1,5.550470352E-1
5.134416313E0,4.696023092E-2,5.402335525E-1,5.394699574E-1
5.153655375E0,4.466948658E-2,7.077631950E-1,5.138136148E-1
5.172894438E0,6.559160352E-2,8.262709975E-1,5.087739825E-1
5.192133500E0,7.322741300E-2,8.730021119E-1,5.243510604E-1
5.211372563E0,7.735075057E-2,8.372665644E-1,5.370265245E-1
5.230611521E0,1.106428802E-1,7.627410293E-1,5.825359225E-1
5.249850583E0,1.633299738E-1,6.643918157E-1,6.367501616E-1
5.269089646E0,2.435059696E-1,6.595048904E-1,6.657662392E-1
5.288328708E0,3.537670672E-1,7.363211513E-1,6.483566165E-1
5.307567771E0,3.091739416E-1,5.952113867E-1,5.900190473E-1
5.326806833E0,3.642281145E-2,4.829649627E-1,5.790234804E-1
5.346045896E0,-1.964693815E-1,7.633519173E-1,6.335431337E-1
5.365284958E0,-3.117701113E-1,1.076114655E0,6.718748808E-1
5.384524021E0,-3.107011020E-1,1.252043724E0,6.651554108E-1
5.403763083E0,-1.437823027E-1,1.319391608E0,6.842449307E-1
5.423002146E0,5.093085021E-2,1.094287872E0,7.135664225E-1
5.442241208E0,1.541669965E-1,7.456368208E-1,7.334195375E-1
5.461480271E0,1.204167232E-1,5.388590693E-1,7.577013969E-1
5.480719333E0,6.032289471E-3,5.388590693E-1,7.856484652E-1
5.499958396E0,-1.375209391E-1,5.987238288E-1,7.583122849E-1
5.519197458E0,-2.312886715E-1,6.848557591E-1,6.749292016E-1
5.538436521E0,-2.421315312E-1,8.291725516E-1,5.869646668E-1
5.557675583E0,-1.973856837E-1,9.485966563E-1,5.246564746E-1
5.576914646E0,-1.436295807E-1,9.282854199E-1,4.710530937E-1
5.596153708E0,-1.065195426E-1,7.712931633E-1,4.450913370E-1
5.615392771E0,-7.047852129E-2,6.124683022E-1,4.563923478E-1
5.634631833E0,-3.214675933E-2,4.957931340E-1,4.516581595E-1
5.653870896E0,-1.366809942E-2,3.710239828E-1,4.125627875E-1
5.673109958E0,-3.993528336E-2,2.540434003E-1,3.513236046E-1
5.692349021E0,-1.335503161E-1,2.248746008E-1,2.928332984E-1
5.711588083E0,-2.204458266E-1,2.671769857E-1,2.535852492E-1
5.730827146E0,-1.900553107E-1,3.149771392E-1,2.176969349E-1
5.750066208E0,7.559451740E-3,2.920697331E-1,1.527925581E-1
5.769305271E0,2.583194375E-1,1.459203213E-1,5.597048625E-2
5.788544333E0,4.147008359E-1,-6.101011857E-2,-2.313650399E-2
5.807783396E0,4.253909588E-1,-1.966221035E-1,-8.300124854E-2
5.827022458E0,2.899316847E-1,-2.713003159E-1,-1.355356276E-1
5.846261521E0,4.237874225E-2,-2.923751473E-1,-1.686750352E-1
5.865500583E0,-1.393535286E-1,-2.641226649E-1,-1.902080178E-1
5.884739646E0,-7.093667239E-2,-2.454912812E-1,-2.364810258E-1
5.903978708E0,1.190422773E-1,-2.761872411E-1,-3.499491513E-1
5.923217771E0,1.243873388E-1,-2.775616944E-1,-4.609738290E-1
5.942456833E0,-1.165988147E-1,-1.584430486E-1,-4.438696206E-1
5.961695896E0,-3.691914082E-1,1.153007243E-2,-3.585012555E-1
5.980934958E0,-4.172970057E-1,7.002037764E-2,-3.255145550E-1
6.000174021E0,-2.629009187E-1,2.008217946E-2,-3.643044829E-1
6.019413083E0,-5.016727000E-2,-6.528617442E-2,-4.093557596E-1
6.038652146E0,3.397935256E-2,-9.598212689E-2,-3.879754841E-1
6.057891208E0,6.032289471E-3,-6.238456443E-2,-2.997055352E-1
6.077130271E0,-6.337722298E-3,-5.001455545E-2,-2.123518735E-1
6.096369333E0,2.145662531E-2,-1.546251476E-1,-1.741728187E-1
6.115608396E0,5.871937796E-2,-2.725220621E-1,-1.709657758E-1
6.134847458E0,4.451677203E-2,-2.874882221E-1,-1.929569095E-1
6.154086521E0,-3.168861195E-2,-2.076176703E-1,-2.016617358E-1
6.173325583E0,-1.446985900E-1,-2.695440874E-2,-1.714239269E-1
6.192564646E0,-2.073122412E-1,1.439350098E-1,-1.399643868E-1
6.211803708E0,-1.941786408E-1,2.355647236E-1,-9.903645515E-2
6.231042771E0,-1.416442692E-1,2.314413935E-1,-2.588539571E-2
6.250281833E0,-6.971494108E-2,1.854738146E-1,3.794997558E-2
6.269520896E0,3.917170316E-2,1.277471036E-1,5.566505343E-2
6.288759958E0,1.766162813E-1,7.689260691E-2,6.513345987E-2
6.307999021E0,2.541961074E-1,2.619082667E-2,6.910407543E-2
6.327238083E0,2.561814189E-1,5.062541738E-2,7.124210149E-2
6.346477146E0,2.008981556E-1,1.367573589E-1,7.078395784E-2
6.365716208E0,1.479056329E-1,2.648862302E-1,7.719803602E-2
6.384955271E0,1.098793000E-1,3.659843504E-1,4.864010960E-2
6.404194333E0,1.085048541E-1,3.901135325E-1,4.528035223E-2
6.423433396E0,8.681915700E-2,3.638463318E-1,9.842558950E-2
6.442672458E0,1.169042438E-1,3.552942276E-1,1.640935540E-1
6.461911521E0,2.879463732E-1,4.183660150E-1,1.909715980E-1
6.481150583E0,5.515345335E-1,4.799106419E-1,2.024253160E-1
6.500389646E0,5.619192123E-1,1.195004210E-1,1.886808574E-1
6.519628708E0,2.134208828E-1,-3.869064748E-1,2.212094069E-1
6.538867771E0,-1.034652218E-1,-2.690095901E-1,3.632354736E-1
6.558106833E0,-2.273180634E-1,1.848629564E-1,4.116465151E-1
6.577345896E0,-1.647044122E-1,5.225184560E-1,3.389535844E-1
6.596584958E0,-6.498073786E-2,6.498837471E-1,3.001636863E-1
6.615824021E0,8.559742570E-2,6.776781082E-1,3.435350657E-1
6.635063083E0,1.966221035E-1,4.800633490E-1,3.823249936E-1
6.654302146E0,2.491564751E-1,1.720348001E-1,3.956113160E-1
6.673541208E0,2.468657345E-1,-4.680751264E-2,4.243219495E-1
6.692780271E0,1.891390085E-1,-1.308014244E-1,4.574613571E-1
6.712019333E0,1.088102907E-1,-1.317177117E-1,4.687623680E-1
6.731258396E0,4.039343446E-2,-8.468113095E-2,4.253909588E-1
6.750497458E0,-2.787070535E-2,-4.360047355E-2,3.307069242E-1
6.769736521E0,-1.074358448E-1,1.412624773E-2,2.205985487E-1
6.788975583E0,-1.589011997E-1,1.233183295E-1,1.306487024E-1
6.808214646E0,-1.509599537E-1,2.050214857E-1,7.353284955E-2
6.827453708E0,-1.158352345E-1,2.063959390E-1,2.099847607E-2
6.846692771E0,-9.796743840E-2,1.451567411E-1,-1.458439697E-2
6.865931833E0,-8.483384550E-2,1.201112866E-1,-2.160934173E-2
6.885170896E0,-3.657552972E-2,1.376736462E-1,-1.488982886E-2
6.904409958E0,6.948587019E-3,1.196531355E-1,-2.054032870E-2
6.923649021E0,3.627009690E-2,3.260490671E-2,-1.565340906E-2
6.942888083E0,7.521272451E-2,-3.397935256E-2,-1.061377581E-2
6.962127146E0,1.558468789E-1,-4.650207981E-2,-1.153007243E-2
6.981366208E0,2.390772104E-1,3.817904799E-4,-2.298378758E-2
7.000605271E0,2.719111741E-1,3.275762498E-2,-1.901316643E-2
7.019844333E0,2.373973280E-1,1.534797717E-2,-1.458439697E-2
7.039083396E0,2.024253160E-1,5.879573524E-3,5.115992390E-3
7.058322458E0,2.236528695E-1,1.603520010E-3,5.016727000E-2
7.077561521E0,3.397171795E-1,-6.375901401E-2,1.020907760E-1
7.096800583E0,3.850739002E-1,-2.454912812E-1,6.772962958E-2
7.116039646E0,2.128100246E-1,-3.415497839E-1,5.413788930E-2
7.135278708E0,-6.299543381E-2,-8.620829135E-2,1.534034163E-1
7.154517771E0,-2.099084109E-1,2.800051570E-1,2.257908881E-1
7.173756833E0,-1.408806890E-1,4.461603761E-1,1.683696061E-1
7.192995896E0,-7.254019380E-3,2.836703360E-1,9.689842910E-2
7.212234958E0,7.582359016E-2,1.977674663E-2,9.567669779E-2
7.231474021E0,7.002037764E-2,-1.639408320E-1,1.185841262E-1
7.250713083E0,1.519526169E-2,-1.150716543E-1,1.242346242E-1
7.269952250E0,-7.918334752E-2,5.169443041E-2,1.014799103E-1
7.289191313E0,-2.057850659E-1,1.828776449E-1,7.719803602E-2
7.308430375E0,-2.928332984E-1,2.108247131E-1,6.589704007E-2
7.327669438E0,-2.896262705E-1,1.983019859E-1,6.360629201E-2
7.346908500E0,-1.914297491E-1,2.606101930E-1,4.940368980E-2
7.366147563E0,-6.757691503E-2,3.304014802E-1,-7.254019380E-3
7.385386625E0,6.337722298E-3,3.833940029E-1,-4.436405376E-2
7.404625688E0,2.237292193E-2,4.376082420E-1,-1.550069358E-2
7.423864750E0,2.664897591E-2,3.986656368E-1,4.963276442E-3
7.443103813E0,5.031998456E-2,3.340666890E-1,2.344193682E-2
7.462342875E0,3.886627033E-2,2.670242786E-1,6.650790572E-2
7.481581938E0,-1.351538301E-2,2.073122412E-1,9.002619982E-2
7.500821000E0,-1.718057133E-2,2.902371287E-1,7.246383280E-2
7.520060063E0,4.955640435E-2,5.344303250E-1,7.292198390E-2
7.539299125E0,1.538615674E-1,7.022654414E-1,9.216422588E-2
7.558538188E0,2.034943253E-1,6.369028687E-1,1.205694377E-1
7.577777250E0,1.697440445E-1,4.641808867E-1,1.425605714E-1
7.597016313E0,1.527925581E-1,4.174497128E-1,1.992182732E-1
7.616255375E0,1.866955459E-1,5.527562499E-1,2.775616944E-1
7.635494438E0,3.146717250E-1,8.132901192E-1,3.572795391E-1
7.654733500E0,3.641517758E-1,5.779544115E-1,3.727038801E-1
7.673972563E0,5.345066893E-4,-2.163224965E-1,2.822958827E-1
7.693211625E0,-3.552942276E-1,-2.798524201E-1,3.604865670E-1
7.712450688E0,-5.988765359E-1,3.061196208E-1,4.675406218E-1
7.731689750E0,-5.805506110E-1,9.864702821E-1,4.140899479E-1
7.750928813E0,-3.233765364E-1,1.301981926E0,2.888626754E-1
7.770167875E0,-1.538615674E-1,1.043433428E0,2.714530230E-1
7.789406938E0,-1.210275814E-1,5.965858102E-1,3.774380684E-1
7.808646000E0,-8.345939964E-2,2.761872411E-1,5.141190886E-1
7.827885063E0,-1.702785492E-2,9.476039559E-2,5.794816017E-1
7.847124125E0,-8.475748822E-3,1.244636998E-2,5.776489973E-1
7.866363188E0,-8.544471115E-2,6.116283685E-2,5.420661569E-1
7.885602250E0,-2.057850659E-1,1.824194938E-1,4.883100390E-1
7.904841313E0,-3.180314898E-1,3.216966689E-1,4.090503156E-1
7.924080375E0,-3.731620312E-1,4.420370162E-1,3.180314898E-1
7.943319438E0,-3.213912249E-1,4.921279252E-1,2.280816436E-1
7.962558500E0,-1.902080178E-1,4.261545539E-1,1.926514804E-1
7.981797563E0,-6.268999726E-2,2.717584670E-1,1.784488708E-1
8.001036625E0,2.863428742E-2,1.361464858E-1,1.621082425E-1
8.020275688E0,5.261072889E-2,7.780890167E-2,1.379790753E-1
8.039514750E0,1.168278884E-2,9.537126124E-2,1.042288020E-1
8.058753813E0,-2.206749097E-2,1.640935540E-1,8.452841640E-2
8.077992875E0,4.008800164E-2,2.146426141E-1,8.177952468E-2
8.097231938E0,2.354120165E-1,1.346193254E-1,7.704532146E-2
8.116471000E0,4.305832982E-1,-9.552398324E-2,5.612320080E-2
8.135710167E0,5.023599267E-1,-3.070359230E-1,2.542724647E-2
8.154949229E0,4.148535430E-1,-3.953058720E-1,-5.268708803E-3
8.174188292E0,2.508363426E-1,-3.452149630E-1,-6.337722298E-3
8.193427354E0,1.619555205E-1,-2.024253160E-1,1.259908639E-2
8.212666417E0,2.022725940E-1,-1.236237586E-1,-4.314232618E-2
8.231905479E0,1.361464858E-1,-1.854738146E-1,-1.677587330E-1
8.251144542E0,-7.551816106E-2,-1.004109010E-1,-1.724929363E-1
8.270383604E0,-2.952767611E-1,1.092684343E-1,-7.857248187E-2
8.289622667E0,-3.077994883E-1,3.204749227E-1,-6.490438245E-3
8.308861729E0,-8.437569439E-2,2.984837890E-1,-2.588539571E-2
8.328100792E0,1.234710440E-1,9.392046370E-3,-6.772962958E-2
8.347339854E0,1.198058575E-1,-2.913061380E-1,-4.833467677E-2
8.366578917E0,-5.703949928E-2,-4.021781087E-1,1.756236190E-3
8.385817979E0,-2.822958827E-1,-3.154352903E-1,4.360047355E-2
8.405057042E0,-4.565450549E-1,-1.092684343E-1,4.115701467E-2
8.424296104E0,-5.217548609E-1,1.468366235E-1,1.947131567E-2
8.443535167E0,-4.698313773E-1,2.963457704E-1,-1.916588284E-2
8.462774229E0,-3.427715003E-1,3.215439618E-1,-3.016144782E-2
8.482013292E0,-2.146426141E-1,2.645808160E-1,-9.086613543E-3
8.501252354E0,-9.109520912E-2,2.021198869E-1,4.390590638E-2
8.520491417E0,3.764454275E-2,1.654679924E-1,9.338594973E-2
8.539730479E0,1.550832987E-1,1.599702090E-1,1.321758628E-1
8.558969542E0,2.175442129E-1,1.352301836E-1,1.576794684E-1
8.578208604E0,2.341902852E-1,8.513928205E-2,1.758527011E-1
8.597447667E0,1.789070219E-1,4.314232618E-2,1.964693815E-1
8.616686729E0,1.224020272E-1,1.361464858E-1,2.274707705E-1
8.635925792E0,1.643989831E-1,3.659843504E-1,2.383136153E-1
8.655164854E0,2.534325123E-1,5.038870573E-1,2.297615111E-1
8.674403917E0,2.250273079E-1,4.325686097E-1,2.436586916E-1
8.693642979E0,1.303432733E-1,3.510181606E-1,3.032180071E-1
8.712882042E0,4.543306679E-2,3.679696620E-1,3.617083132E-1
8.732121104E0,6.849320978E-2,5.300015807E-1,4.104247689E-1
8.751360167E0,1.873064190E-1,7.853430510E-1,4.208094776E-1
8.770599229E0,3.389535844E-1,1.044807792E0,3.757582009E-1
8.789838292E0,4.020253718E-1,9.745584130E-1,3.630827665E-1
8.809077458E0,1.434768587E-1,3.381900191E-1,3.856847584E-1
8.828316521E0,-2.273180634E-1,2.145662531E-2,5.052615404E-1
8.847555583E0,-4.379136860E-1,3.476584256E-1,6.062069535E-1
8.866794646E0,-3.662897944E-1,9.540944099E-1,5.970439911E-1
8.886033708E0,-9.323323518E-2,1.350240231E0,4.873937368E-1
8.905272771E0,1.647044122E-1,1.337412119E0,4.397462904E-1
8.924511833E0,2.575558722E-1,9.519563913E-1,4.650971591E-1
8.943750896E0,2.297615111E-1,5.732202530E-1,5.067886710E-1
8.962989958E0,1.645517051E-1,4.831176698E-1,5.309178233E-1
8.982229021E0,5.047270283E-2,5.666534305E-1,5.420661569E-1
9.001468083E0,-9.124792367E-2,6.659189463E-1,5.442041755E-1
9.020707146E0,-2.389244884E-1,6.437751055E-1,5.364156365E-1
9.039946208E0,-3.099375069E-1,5.927678943E-1,5.310705900E-1
9.059185271E0,-3.107011020E-1,5.249619484E-1,4.965566993E-1
9.078424333E0,-2.511417866E-1,5.173261166E-1,4.562396407E-1
9.097663396E0,-1.764635593E-1,5.651262999E-1,4.107302129E-1
9.116902458E0,-1.231656075E-1,5.962803960E-1,3.759109080E-1
9.136141521E0,-6.116283685E-2,5.797870159E-1,3.824777007E-1
9.155380583E0,1.488982886E-2,5.077049732E-1,3.737728894E-1
9.174619646E0,5.551233515E-2,4.603629708E-1,3.429242074E-1
9.193858708E0,4.650207981E-2,5.089266896E-1,3.048978746E-1
9.213097771E0,4.833467677E-2,6.323214173E-1,2.885572612E-1
9.232336833E0,9.262236953E-2,6.491202116E-1,2.880991101E-1
9.251575896E0,1.895971596E-1,5.087739825E-1,3.218493760E-1
9.270815063E0,3.038288653E-1,3.473529816E-1,3.560578227E-1
9.290054125E0,3.914879560E-1,3.041343093E-1,3.641517758E-1
9.309293188E0,4.302778840E-1,3.870591819E-1,3.644571900E-1
9.328532250E0,4.369973838E-1,5.379427671E-1,4.321104586E-1
9.347771313E0,3.704131246E-1,4.224893451E-1,4.654026031E-1
9.367010375E0,-1.504254527E-2,-1.046105940E-2,4.354702234E-1
9.386249438E0,-4.550178945E-1,1.535561383E-1,5.562687516E-1
9.405488500E0,-5.116755962E-1,9.119447470E-1,7.395281792E-1
9.424727563E0,-1.734092385E-1,1.280601621E0,8.048906922E-1
9.443966625E0,1.975383908E-1,9.401972294E-1,7.981712222E-1
9.463205688E0,2.891681194E-1,4.631118476E-1,8.537598848E-1
9.482444750E0,1.454621702E-1,4.017199576E-1,9.774600267E-1
9.501683813E0,-1.422551423E-1,7.040980458E-1,1.096731305E0
9.520922875E0,-3.595702946E-1,1.108490467E0,1.152930856E0
9.540161938E0,-3.669006526E-1,1.347796798E0,1.141324520E0
9.559401000E0,-2.057850659E-1,1.337412119E0,1.112155676E0
9.578640063E0,8.933897130E-3,1.230205297E0,1.105894327E0
9.597879125E0,1.860846877E-1,1.212642908E0,1.111086726E0
9.617118188E0,2.748127878E-1,1.305189013E0,1.104214430E0
9.636357250E0,2.790888548E-1,1.482645154E0,1.097036839E0
9.655596313E0,2.297615111E-1,1.706527114E0,1.125289321E0
9.674835375E0,1.677587330E-1,1.819689870E0,1.185459495E0
9.694074438E0,1.724929363E-1,1.828241944E0,1.249447584E0
9.713313604E0,2.219729871E-1,1.821522355E0,1.305799842E0
9.732552667E0,2.673296928E-1,1.909792423E0,1.363831997E0
9.751791729E0,2.679405510E-1,2.070449829E0,1.411479473E0
9.771030792E0,2.248746008E-1,2.223776817E0,1.460959435E0
9.790269854E0,1.508072466E-1,2.303952932E0,1.528918147E0
9.809508917E0,6.024653837E-2,2.294178963E0,1.573358655E0
9.828747979E0,3.443750367E-2,2.302425623E0,1.583743334E0
9.847987042E0,3.810269013E-2,2.286695957E0,1.604818106E0
9.867226104E0,-1.198822167E-2,2.216599226E0,1.623754978E0
9.886465167E0,-4.283689335E-2,2.257832527E0,1.626198411E0
9.905704229E0,-7.399099320E-2,2.347782373E0,1.610774040E0
9.924943292E0,-8.788817376E-2,2.399095058E0,1.582979679E0
9.944182354E0,-9.689842910E-2,2.368246317E0,1.543273449E0
9.963421417E0,-7.887791097E-2,2.244699001E0,1.519144297E0
9.982660479E0,-3.932442144E-2,2.045709848E0,1.495778799E0
1.000189954E1,-1.962403022E-2,1.827478290E0,1.462486625E0
1.002113860E1,-2.848157100E-2,1.682092547E0,1.403385520E0
1.004037767E1,-4.390590638E-2,1.659337759E0,1.325194836E0
1.005961673E1,-8.544471115E-2,1.690797329E0,1.244407892E0
1.007885579E1,-1.459203213E-1,1.717828155E0,1.178892612E0
1.009809485E1,-2.219729871E-1,1.748829484E0,1.133535981E0
1.011733402E1,-2.913061380E-1,1.741346359E0,1.104825258E0
1.013657308E1,-3.177260458E-1,1.718744397E0,1.071533203E0
1.015581215E1,-3.464366794E-1,1.691255450E0,1.038393736E0
1.017505121E1,-3.531562090E-1,1.672318697E0,1.033506870E0
1.019429027E1,-3.139081299E-1,1.594891548E0,1.043433428E0
1.021352933E1,-2.456440032E-1,1.490433693E0,1.046182275E0
1.023276840E1,-1.914297491E-1,1.378034592E0,1.037935615E0
1.025200746E1,-1.246927753E-1,1.275409341E0,1.044196963E0
1.027124652E1,-5.459604040E-2,1.169424295E0,1.055039883E0
1.029048558E1,9.392046370E-3,1.057177901E0,1.038851857E0
1.030972465E1,5.261072889E-2,9.876919985E-1,9.942587614E-1
1.032896371E1,9.934188426E-2,9.612720609E-1,9.337831736E-1
1.034820277E1,1.526398361E-1,9.296598434E-1,8.839976788E-1
1.036744183E1,1.905134469E-1,8.523854613E-1,8.259655237E-1
1.038668090E1,2.008981556E-1,7.920625210E-1,7.486911416E-1
1.040591996E1,1.827249229E-1,7.387645841E-1,6.430115104E-1
1.042515902E1,5.505418777E-2,6.743183732E-1,5.226711631E-1
1.044439808E1,-1.324812919E-1,7.850375772E-1,4.570032060E-1
1.046363715E1,-2.537379563E-1,1.024649262E0,4.321104586E-1
1.048287621E1,-2.296088040E-1,1.137506604E0,4.037052691E-1
1.050211538E1,-1.253036410E-1,1.014875531E0,3.710239828E-1
1.052135444E1,-1.351538301E-2,7.303652167E-1,3.549887836E-1
1.054059350E1,3.856083751E-2,5.220603347E-1,3.864483237E-1
1.055983256E1,-1.076649129E-2,4.899899065E-1,4.554760456E-1
1.057907163E1,-1.115591824E-1,5.382482409E-1,5.138136148E-1
1.059831069E1,-1.709657758E-1,5.694023371E-1,5.219075680E-1
1.061754975E1,-2.181550860E-1,5.545888543E-1,5.044979453E-1
1.063678881E1,-3.103956580E-1,5.620719790E-1,4.991528690E-1
1.065602788E1,-3.899607956E-1,6.162862182E-1,5.205331445E-1
1.067526694E1,-3.974438906E-1,6.141481996E-1,5.423715711E-1
1.069450600E1,-3.175733387E-1,5.367210507E-1,5.678751469E-1
1.071374506E1,-2.019671649E-1,4.053851366E-1,5.941423774E-1
1.073298413E1,-1.013271958E-1,2.925278842E-1,6.043743491E-1
1.075222319E1,-3.871355578E-2,2.271653414E-1,6.028471589E-1
1.077146225E1,2.061668551E-3,2.047160566E-1,5.565741658E-1
1.079070131E1,1.962403022E-2,2.315941155E-1,4.861720204E-1
1.080994038E1,-1.030834299E-2,3.035234511E-1,4.327213466E-1
1.082917944E1,-7.551816106E-2,3.591121435E-1,3.975966275E-1
1.084841850E1,-1.111010313E-1,3.420079052E-1,3.591121435E-1
1.086765756E1,-8.300124854E-2,3.166570365E-1,3.194059134E-1
1.088689673E1,-1.290451828E-2,3.070359230E-1,2.746600807E-1
1.090613579E1,6.925679743E-2,3.021489978E-1,2.178496569E-1
1.092537485E1,1.558468789E-1,3.256672919E-1,1.763108522E-1
1.094461392E1,2.091448307E-1,3.334558010E-1,1.425605714E-1
1.096385298E1,2.512944937E-1,2.905425727E-1,9.934188426E-2
1.098309204E1,3.032180071E-1,2.325104028E-1,5.948295817E-2
1.100233110E1,3.221548200E-1,1.813504845E-1,2.848157100E-2
1.102157017E1,3.783543706E-1,2.709949017E-1,1.214093715E-2
1.104080923E1,5.144245028E-1,4.498255551E-1,-5.933023989E-2
1.106004829E1,4.809796512E-1,3.760636151E-1,-1.294269711E-1
1.107928735E1,1.109483168E-1,-7.643445581E-2,-1.405752599E-1
1.109852642E1,-3.549887836E-1,-2.975675166E-1,-1.092684343E-1
1.111776548E1,-5.782598853E-1,4.741837829E-2,-9.262236953E-2
1.113700454E1,-4.368446767E-1,7.034871578E-1,-1.097265854E-1
1.115624360E1,-1.175151095E-1,9.508873820E-1,-1.625663936E-1
1.117548267E1,1.100320220E-1,6.317105293E-1,-1.599702090E-1
1.119472173E1,1.807396114E-1,1.553887278E-1,-7.078395784E-2
1.121396079E1,1.836412251E-1,-1.117118970E-1,7.719803602E-2
1.123319985E1,1.630245447E-1,-1.957058012E-1,1.731038094E-1
1.125243902E1,1.224020272E-1,-1.466839015E-1,2.204458266E-1
1.127167808E1,6.299543381E-2,-3.565923125E-2,2.485456020E-1
1.129091715E1,6.589704007E-2,8.162680268E-2,2.897789776E-1
1.131015621E1,1.413388401E-1,1.046869531E-1,3.189477623E-1
1.132939527E1,2.063959390E-1,2.588539571E-2,3.151298761E-1
1.134863433E1,2.016617358E-1,-7.582359016E-2,3.108538091E-1
1.136787340E1,1.865428388E-1,-1.347720474E-1,3.067304790E-1
1.138711246E1,2.302196622E-1,-1.086575761E-1,2.685514390E-1
1.140635152E1,2.399934977E-1,-3.840812296E-2,2.033416182E-1
1.142559058E1,1.851683855E-1,1.595884189E-2,1.556941569E-1
1.144482965E1,1.359937787E-1,3.611737862E-2,1.340084672E-1
1.146406871E1,1.237764731E-1,-1.779143699E-2,7.826705277E-2
1.148330777E1,1.526398361E-1,-1.165988147E-1,3.283398226E-3
1.150254683E1,2.221257091E-1,-1.576794684E-1,-4.192059487E-2
1.152178590E1,2.858083546E-1,-1.778380126E-1,-8.101594448E-2
1.154102496E1,3.281107545E-1,-2.590830326E-1,-1.388953775E-1
1.156026402E1,3.120755553E-1,-3.320813775E-1,-1.954003721E-1
1.157950308E1,2.398407906E-1,-3.627773225E-1,-2.407570779E-1
1.159874225E1,1.897498667E-1,-3.936260045E-1,-2.885572612E-1
1.161798131E1,2.723693252E-1,-4.088976085E-1,-3.354411125E-1
1.163722038E1,5.361102223E-1,-4.275289774E-1,-4.296670258E-1
1.165645944E1,6.260600686E-1,-5.782598853E-1,-6.069704890E-1
1.167569850E1,2.589302957E-1,-7.914516926E-1,-7.208967805E-1
1.169493756E1,-2.120464295E-1,-5.622246861E-1,-6.187296510E-1
1.171417662E1,-4.748710096E-1,-2.848920524E-1,-4.650971591E-1
1.173341569E1,-3.598757088E-1,-1.524871141E-1,-4.429533184E-1
1.175265475E1,-8.376483619E-2,-2.465602905E-1,-4.702895284E-1
1.177189381E1,3.321577236E-2,-4.870882928E-1,-4.278344214E-1
1.179113288E1,-6.818778068E-2,-6.927970052E-1,-2.945131958E-1
1.181037194E1,-2.352592945E-1,-7.343358397E-1,-1.315650046E-1
1.182961100E1,-3.290270567E-1,-6.451495886E-1,-3.917170316E-2
1.184885006E1,-3.343721032E-1,-5.266417861E-1,-6.207913160E-2
1.186808913E1,-2.862665057E-1,-4.429533184E-1,-1.387426704E-1
1.188732819E1,-2.557232678E-1,-4.310414493E-1,-1.624136716E-1
1.190656735E1,-2.699258626E-1,-4.424951673E-1,-1.362992078E-1
1.192580642E1,-2.702313066E-1,-3.769799173E-1,-1.338557452E-1
1.194504548E1,-2.335794270E-1,-2.512944937E-1,-1.575267613E-1
1.196428454E1,-1.611919403E-1,-1.153770834E-1,-1.682168841E-1
1.198352360E1,-8.513928205E-2,-5.291616172E-2,-1.489746422E-1
1.200276267E1,-2.466366626E-2,-1.086575761E-1,-1.123227626E-1
1.202200173E1,5.345066893E-4,-2.108247131E-1,-7.399099320E-2
1.204124079E1,-4.352411721E-3,-2.111301422E-1,-5.627591908E-2
1.206047985E1,-4.046979360E-3,-1.824958436E-2,-5.581776798E-2
1.207971892E1,2.222020552E-2,2.256381810E-1,-5.719221383E-2
1.209895798E1,3.856083751E-2,3.090212345E-1,-3.856083751E-2
1.211819704E1,2.863428742E-2,1.671478748E-1,8.781181648E-3
1.213743610E1,4.650207981E-2,-5.581776798E-2,4.528035223E-2
1.215667517E1,1.191949919E-1,-1.106428802E-1,4.787652567E-2
1.217591423E1,1.961639524E-1,1.430187225E-1,3.367391974E-2
1.219515329E1,2.664133906E-1,5.477166176E-1,2.939786762E-2
1.221439246E1,4.218784869E-1,7.399863005E-1,8.315397054E-2
1.223363152E1,4.496728480E-1,2.212094069E-1,8.880446851E-2
1.225287058E1,1.575267613E-1,-6.483566165E-1,3.031416424E-2
1.227210965E1,-2.163224965E-1,-6.124683022E-1,1.043815166E-1
1.229134871E1,-3.638463318E-1,2.793942690E-1,2.538906634E-1
1.231058777E1,-2.164752036E-1,8.209258914E-1,2.526689470E-1
1.232982683E1,-2.466366626E-2,5.920043588E-1,1.657734364E-1
1.234906590E1,3.077231348E-2,3.535379842E-2,1.786015928E-1
1.236830496E1,-1.122464053E-2,-3.183369040E-1,2.216675580E-1
1.238754402E1,-9.445496649E-2,-3.636936247E-1,2.317468226E-1
1.240678308E1,-2.034943253E-1,-2.178496569E-1,2.170860767E-1
1.242602215E1,-2.645808160E-1,-3.245219216E-2,1.990655661E-1
1.244526121E1,-2.402989268E-1,1.040760875E-1,1.790597439E-1
1.246450027E1,-1.515708268E-1,1.613446623E-1,1.556941569E-1
1.248373933E1,-4.298960790E-2,1.804341823E-1,1.257617921E-1
1.250297840E1,5.871937796E-2,1.320231557E-1,9.735657275E-2
1.252221746E1,1.349247545E-1,5.230529606E-2,6.940951198E-2
1.254145662E1,1.659261435E-1,-4.192059487E-2,5.245801434E-2
1.256069569E1,1.485165060E-1,-8.193223923E-2,2.970330045E-2
1.257993475E1,7.811433077E-2,-7.063124329E-2,-7.635809743E-5
1.259917381E1,-1.870773360E-2,-5.230529606E-2,-4.970912263E-2
1.261841288E1,-1.323285848E-1,-4.024071619E-2,-7.185296714E-2
1.263765194E1,-2.012035847E-1,-5.047270283E-2,-5.902481079E-2
1.265689100E1,-1.375209391E-1,-6.727148592E-2,-5.108356848E-2
1.267613006E1,4.237874225E-2,-1.169042438E-1,-6.971494108E-2
1.269536913E1,2.166279256E-1,-2.658025324E-1,-1.124754772E-1
1.271460819E1,2.717584670E-1,-4.130209386E-1,-1.501963735E-1
1.273384725E1,1.853211075E-1,-4.713585377E-1,-1.479056329E-1
1.275308631E1,7.276926935E-2,-4.266127050E-1,-1.671478748E-1
1.277232538E1,7.101302966E-3,-3.389535844E-1,-2.209039778E-1
1.279156444E1,-1.472947747E-1,-3.294851780E-1,-2.978729308E-1
1.281080350E1,-4.785361886E-1,-2.593884468E-1,-3.575849831E-1
1.283004267E1,-7.314342260E-1,1.603520010E-3,-3.552942276E-1
1.284928173E1,-6.679042578E-1,1.998291463E-1,-3.224602342E-1
1.286852079E1,-3.652207851E-1,7.582359016E-2,-3.566686809E-1
1.288775985E1,8.544471115E-2,-1.935677826E-1,-3.627773225E-1
1.290699892E1,3.725511432E-1,-4.878518879E-1,-3.418551981E-1
1.292623798E1,3.368155658E-1,-8.468876481E-1,-2.856556475E-1
1.294547704E1,1.288161129E-1,-1.030605197E0,-2.386190593E-1
1.296471610E1,-1.028543562E-1,-9.502764940E-1,-2.441168427E-1
1.298395517E1,-2.508363426E-1,-6.065123677E-1,-3.145190179E-1
1.300319423E1,-3.560578227E-1,-2.065486610E-1,-4.098139107E-1
1.302243329E1,-4.330267608E-1,2.344193682E-2,-4.753291607E-1
1.304167235E1,-4.324159026E-1,9.170607477E-2,-4.701367915E-1
1.306091142E1,-3.933205605E-1,2.451094985E-2,-4.344012141E-1
1.308015048E1,-2.960403562E-1,-3.336848691E-2,-3.841575980E-1
1.309938954E1,-1.708130687E-1,-4.069886729E-2,-3.288743198E-1
1.311862860E1,-7.612902671E-2,-2.328922041E-2,-2.619846463E-1
1.313786777E1,-3.077231348E-2,-7.635809743E-5,-1.862373948E-1
1.315710683E1,-2.481638081E-2,1.145371469E-3,-1.094211563E-1
1.317634590E1,-2.741255611E-2,1.702785492E-2,-2.603811212E-2
1.319558496E1,7.635809743E-5,5.795579776E-2,1.840230078E-2
1.321482402E1,7.628174126E-2,1.903607398E-1,4.008800164E-2
1.323406308E1,1.359937787E-1,3.927097023E-1,1.112537459E-1
1.325330215E1,1.717293561E-1,5.660426021E-1,2.230419964E-1
1.327254121E1,2.092975378E-1,5.454258919E-1,3.105483949E-1
1.329178027E1,2.738964856E-1,3.924042583E-1,3.811032772E-1
1.331101933E1,3.633881807E-1,2.725220621E-1,4.395935535E-1
1.333025840E1,4.823541045E-1,3.488801420E-1,4.762454629E-1
1.334949746E1,6.387354732E-1,6.081922650E-1,4.847975671E-1
1.336873652E1,6.540070772E-1,7.169261575E-1,5.103011727E-1
1.338797558E1,3.258199990E-1,3.441459537E-1,5.313760042E-1
1.340721465E1,-1.193477064E-1,8.712458611E-2,5.512291193E-1
1.342645371E1,-3.731620312E-1,3.284161687E-1,5.944477916E-1
1.344569277E1,-3.630827665E-1,7.228820920E-1,5.735256672E-1
1.346493194E1,-1.860846877E-1,9.492074847E-1,5.034289360E-1
1.348417100E1,-2.672533505E-3,8.679624796E-1,4.797579348E-1
1.350341006E1,6.345357746E-2,5.724566579E-1,4.945713878E-1
1.352264913E1,6.757691503E-2,3.505600393E-1,5.231293440E-1
1.354188819E1,3.459021822E-2,3.187950552E-1,5.558105707E-1
1.356112725E1,-1.320995111E-2,3.555996716E-1,5.471057892E-1
1.358036631E1,-7.475458086E-2,3.653734922E-1,5.141190886E-1
1.359960538E1,-1.333975941E-1,3.723984361E-1,4.780780375E-1
1.361884444E1,-1.393535286E-1,4.406625926E-1,4.412734509E-1
1.363808350E1,-1.193477064E-1,4.705949426E-1,4.136318266E-1
1.365732256E1,-8.956804872E-2,4.579195082E-1,4.078285992E-1
1.367656163E1,-7.322741300E-2,4.111883640E-1,3.708712757E-1
1.369580069E1,-6.864593178E-2,3.400225937E-1,3.271944523E-1
1.371503975E1,-5.276344717E-2,2.687041461E-1,2.932914495E-1
1.373427881E1,4.810560029E-3,2.082285285E-1,2.619846463E-1
1.375351788E1,3.535379842E-2,1.489746422E-1,2.097556889E-1
1.377275704E1,5.268708803E-3,9.491311759E-2,1.511126757E-1
1.379199610E1,-1.458439697E-2,8.804088831E-2,1.211803034E-1
1.381123517E1,4.329504073E-2,5.306887627E-2,1.040760875E-1
1.383047423E1,1.911243200E-1,7.635809743E-5,4.818195850E-2
1.384971329E1,3.756054938E-1,-5.810851231E-2,-4.925097153E-2
1.386895235E1,4.695259333E-1,-9.521854669E-2,-1.318704337E-1
1.388819142E1,4.334849119E-1,-9.506583214E-2,-1.694386154E-1
1.390743048E1,3.213912249E-1,-5.169443041E-2,-1.995237023E-1
1.392666954E1,2.125045806E-1,3.283398226E-3,-2.059377879E-1
1.394590860E1,2.091448307E-1,-2.290742996E-4,-1.917351782E-1
1.396514767E1,3.549887836E-1,-3.123046272E-2,-1.961639524E-1
1.398438673E1,2.966512144E-1,-1.369100660E-1,-2.459494323E-1
1.400362579E1,-5.077813566E-2,-1.340084672E-1,-2.410625070E-1
1.402286485E1,-4.302778840E-1,1.349247545E-1,-1.288161129E-1
1.404210392E1,-5.008327365E-1,4.863247275E-1,1.916588284E-2
1.406134298E1,-2.726747692E-1,5.551997423E-1,8.681915700E-2
1.408058215E1,-2.481638081E-2,2.717584670E-1,1.020907760E-1
1.409982121E1,5.719221383E-2,-4.696023092E-2,1.515708268E-1
1.411906027E1,-7.559451740E-3,-1.407279670E-1,2.560287118E-1
1.413829933E1,-1.430187225E-1,-6.391172856E-2,3.322340846E-1
1.415753840E1,-2.114355713E-1,9.399681538E-2,3.302487731E-1
1.417677746E1,-1.972329617E-1,2.725220621E-1,2.801578641E-1
1.419601652E1,-1.844048053E-1,3.612501621E-1,2.377027571E-1
1.421525558E1,-2.008981556E-1,3.760636151E-1,2.282343507E-1
1.423449465E1,-2.315941155E-1,3.574322462E-1,2.096029818E-1
1.425373371E1,-2.641226649E-1,3.511708975E-1,1.761581302E-1
1.427297277E1,-2.835176289E-1,3.601811528E-1,1.613446623E-1
1.429221183E1,-2.375500351E-1,3.455203772E-1,1.679114550E-1
1.431145090E1,-1.198058575E-1,2.790888548E-1,1.766162813E-1
1.433068996E1,1.908952487E-3,2.057850659E-1,1.770744324E-1
1.434992902E1,5.062541738E-2,1.228601784E-1,1.639408320E-1
1.436916819E1,8.513928205E-2,1.537088454E-1,1.518762559E-1
1.438840725E1,1.159879491E-1,2.816850245E-1,1.422551423E-1
1.440764631E1,1.491273642E-1,4.466184974E-1,1.431714296E-1
1.442688538E1,1.799760312E-1,4.968621433E-1,1.373682171E-1
1.444612444E1,2.001345754E-1,4.411207438E-1,1.497382224E-1
1.446536350E1,2.088394016E-1,3.662897944E-1,1.663842946E-1
1.448460256E1,2.143371850E-1,3.504073024E-1,1.847102344E-1
1.450384163E1,2.752709389E-1,5.205331445E-1,2.210566849E-1
1.452308069E1,3.641517758E-1,6.349175572E-1,2.325104028E-1
1.454231975E1,1.854738146E-1,2.451858521E-1,1.940259188E-1
1.456155881E1,-1.167515293E-1,-1.565340906E-2,2.060905099E-1
1.458079788E1,-3.566686809E-1,2.105192691E-1,3.152825832E-1
1.460003694E1,-3.638463318E-1,7.164680362E-1,3.861429095E-1
1.461927600E1,-2.031888962E-1,1.019915104E0,3.791179657E-1
1.463851506E1,-1.092684343E-1,9.085850120E-1,3.719402850E-1
1.465775423E1,-1.660788655E-1,5.730675459E-1,4.348593652E-1
1.467699329E1,-2.259436101E-1,2.656498253E-1,5.194641352E-1
1.469623235E1,-1.889862865E-1,1.369100660E-1,5.976548195E-1
1.471547142E1,-1.059086844E-1,1.089630052E-1,6.340012550E-1
1.473471048E1,-2.939786762E-2,1.210275814E-1,6.107884049E-1
1.475394954E1,1.794415340E-2,1.624136716E-1,5.483275056E-1
1.477318860E1,5.673406646E-2,2.742019296E-1,4.738020003E-1
1.479242767E1,8.086322248E-2,4.151589870E-1,3.966803253E-1
1.481166673E1,6.849320978E-2,5.058723688E-1,3.415497839E-1
1.483090579E1,5.963567272E-2,4.768563211E-1,2.929860055E-1
1.485014485E1,1.031597927E-1,4.033998251E-1,2.563341260E-1
1.486938392E1,1.673005968E-1,3.281107545E-1,2.118937224E-1
1.488862308E1,1.874591261E-1,2.713003159E-1,1.405752599E-1
1.490786215E1,1.016326249E-1,2.076176703E-1,9.308052063E-2
1.492710121E1,-7.490729541E-2,1.450040340E-1,7.460185885E-2
1.494634027E1,-1.787542999E-1,1.404225379E-1,6.253728271E-2
1.496557933E1,-1.001054645E-1,1.782961637E-1,2.115119249E-2
1.498481840E1,2.756527252E-2,1.708130687E-1,-4.192059487E-2
1.500405746E1,1.208748668E-1,7.551816106E-2,-9.476039559E-2
1.502329652E1,1.372154951E-1,-8.040507883E-2,-1.292742640E-1
1.504253558E1,1.587484777E-1,-1.764635593E-1,-1.443931609E-1
1.506177485E1,2.483928949E-1,-1.608865112E-1,-1.517235339E-1
1.508101371E1,4.107302129E-1,-1.918879002E-1,-1.633299738E-1
1.510025288E1,4.079813063E-1,-2.966512144E-1,-2.792415619E-1
1.511949194E1,5.887209252E-2,-3.030653000E-1,-3.829358518E-1
1.513873100E1,-3.757582009E-1,9.926552884E-4,-3.126864135E-1
1.515797006E1,-4.925860763E-1,3.687332571E-1,-2.012035847E-1
1.517720913E1,-2.587775886E-1,4.699840844E-1,-1.735619605E-1
1.519644819E1,6.864593178E-2,1.782961637E-1,-1.840993762E-1
1.521568725E1,2.034943253E-1,-2.448804229E-1,-1.547778696E-1
1.523492631E1,1.602756530E-1,-4.747183025E-1,-7.353284955E-2
1.525416538E1,7.903063297E-2,-4.063014388E-1,2.672533505E-3
1.527340444E1,3.092502989E-2,-2.578612864E-1,-2.061668551E-3
1.529264350E1,1.107192412E-2,-8.865175396E-2,-6.910407543E-2
1.531188267E1,-5.215258151E-2,3.688096255E-2,-1.361464858E-1
1.533112173E1,-1.700494885E-1,1.008690447E-1,-1.402698308E-1
1.535036079E1,-2.767980993E-1,7.246383280E-2,-1.040760875E-1
1.536959985E1,-2.694677114E-1,1.305723470E-2,-8.193223923E-2
1.538883892E1,-1.676060259E-1,-2.191477455E-2,-6.971494108E-2
1.540807798E1,-5.902481079E-2,9.239329956E-3,-2.802342176E-2
1.542731704E1,1.718057133E-2,2.825249685E-3,3.688096255E-2
1.544655610E1,7.918334752E-2,-9.369138628E-2,8.865175396E-2
1.546579517E1,1.074358448E-1,-1.709657758E-1,1.136972085E-1
1.548503433E1,7.215840369E-2,-1.323285848E-1,1.338557452E-1
1.550427340E1,4.818195850E-2,-2.977965865E-3,1.427132785E-1
1.552351246E1,1.211803034E-1,1.775325835E-1,1.610392332E-1
1.554275152E1,2.244164497E-1,2.496146262E-1,1.877645552E-1
1.556199058E1,2.577085793E-1,1.327867359E-1,2.164752036E-1
1.558122965E1,2.558759749E-1,-5.108356848E-2,2.370918989E-1
1.560046871E1,2.888626754E-1,-1.283579618E-1,2.418260872E-1
1.561970777E1,4.142426848E-1,6.757691503E-2,2.184605151E-1
1.563894683E1,5.715403557E-1,4.745655656E-1,1.879172772E-1
1.565818600E1,6.113992929E-1,6.475930214E-1,1.665370166E-1
1.567742506E1,2.740492225E-1,1.795178801E-1,1.311068535E-1
1.569666413E1,-1.601229310E-1,-7.994692773E-2,2.028834671E-1
1.571590319E1,-2.803105712E-1,2.945131958E-1,3.107011020E-1
1.573514225E1,-3.840812296E-2,7.905353904E-1,3.143662810E-1
1.575438131E1,2.398407906E-1,8.317687511E-1,1.779907197E-1
1.577362038E1,2.343430072E-1,5.080104470E-1,1.204167232E-1
1.579285944E1,4.848739132E-2,2.596938908E-1,1.819613427E-1
1.581209850E1,-9.552398324E-2,1.870009750E-1,2.479347438E-1
1.583133767E1,-9.567669779E-2,2.454912812E-1,2.427423894E-1
1.585057673E1,-5.138900131E-2,3.137554228E-1,2.086866796E-1
1.586981579E1,-2.817613818E-2,3.247509897E-1,1.958585232E-1
1.588905485E1,-1.595884189E-2,2.893208265E-1,2.138790339E-1
1.590829392E1,1.450803829E-3,2.309832424E-1,2.428951114E-1
1.592753298E1,4.505127668E-3,1.592066288E-1,2.482401729E-1
1.594677204E1,-1.534797717E-2,1.014799103E-1,2.219729871E-1
1.596601110E1,-2.374736778E-2,7.628174126E-2,2.025780380E-1
1.598525027E1,-3.413207084E-2,4.283689335E-2,1.946367919E-1
1.600448933E1,-5.780307949E-2,1.298087649E-3,1.770744324E-1
1.602372840E1,-9.124792367E-2,-5.031998456E-2,1.173623949E-1
1.604296746E1,-1.136972085E-1,-1.072831303E-1,6.879864633E-2
1.606220652E1,-1.005636156E-1,-1.642462611E-1,5.108356848E-2
1.608144558E1,4.024071619E-2,-1.659261435E-1,2.313650399E-2
1.610068465E1,2.570977211E-1,-1.996764243E-1,-2.802342176E-2
1.611992371E1,3.753000498E-1,-3.209330738E-1,-1.048396677E-1
1.613916288E1,3.036761582E-1,-4.105774760E-1,-1.621082425E-1
1.615840194E1,1.263726503E-1,-3.129918277E-1,-1.975383908E-1
1.617764100E1,-1.763872057E-2,-1.308014244E-1,-2.393826395E-1
1.619688006E1,-1.992946304E-2,5.574141163E-3,-2.540434003E-1
1.621611913E1,6.192641705E-2,-2.252563834E-2,-2.935968935E-1
1.623535819E1,-7.551816106E-2,-1.944840699E-1,-3.743837476E-1
1.625459725E1,-3.528507650E-1,-1.659261435E-1,-3.514763117E-1
1.627383642E1,-5.287798047E-1,-1.450803829E-3,-2.680932879E-1
1.629307548E1,-5.043452382E-1,1.466839015E-1,-1.978438348E-1
1.631231454E1,-2.665661275E-1,1.660788655E-1,-1.592066288E-1
1.633155360E1,-2.557996288E-2,-3.046688065E-2,-1.659261435E-1
1.635079267E1,-5.726857111E-3,-3.296379149E-1,-1.482110620E-1
1.637003173E1,-1.585957706E-1,-4.663189054E-1,-6.528617442E-2
1.638927079E1,-2.705367506E-1,-3.749946058E-1,6.185005885E-3
1.640850985E1,-2.378554791E-1,-2.453385741E-1,-3.184132650E-2
1.642774892E1,-1.610392332E-1,-1.807396114E-1,-1.239291951E-1
1.644698808E1,-1.750891209E-1,-1.637881249E-1,-1.711184978E-1
1.646622715E1,-2.462548614E-1,-1.943313628E-1,-1.818086356E-1
1.648546621E1,-3.039815724E-1,-2.215148360E-1,-1.743255407E-1
1.650470527E1,-2.713003159E-1,-1.801287532E-1,-1.810450554E-1
1.652394433E1,-1.724929363E-1,-1.190422773E-1,-2.082285285E-1
1.654318340E1,-1.031597927E-1,-1.019380614E-1,-2.192240953E-1
1.656242246E1,-8.620829135E-2,-8.743002266E-2,-2.128100246E-1
1.658166163E1,-6.055197120E-2,-7.933606207E-2,-2.024253160E-1
1.660090069E1,-2.725984156E-2,-7.307469845E-2,-1.918879002E-1
1.662013975E1,-1.886045001E-2,-4.352411721E-3,-1.750891209E-1
1.663937881E1,2.313650399E-2,1.459203213E-1,-1.439350098E-1
1.665861788E1,1.534034163E-1,3.285689056E-1,-8.972076327E-2
1.667785694E1,2.763399482E-1,3.780489266E-1,-9.926552884E-4
1.669709600E1,3.172678947E-1,2.041051984E-1,9.689842910E-2
1.671633517E1,2.859610617E-1,-4.207331315E-2,1.575267613E-1
1.673557423E1,2.957349122E-1,-1.272889525E-1,2.016617358E-1
1.675481329E1,3.789652288E-1,1.244636998E-2,2.187659442E-1
1.677405235E1,5.185478330E-1,3.151298761E-1,2.239582986E-1
1.679329142E1,6.448441148E-1,5.503128171E-1,1.964693815E-1
1.681253048E1,4.676933587E-1,2.555705607E-1,9.491311759E-2
1.683176954E1,4.146244749E-2,-1.833357960E-1,5.749764666E-2
1.685100860E1,-2.906952798E-1,1.046105940E-2,1.471420527E-1
1.687024777E1,-3.245982826E-1,6.165916324E-1,2.051742077E-1
1.688948683E1,-1.295796931E-1,9.647845626E-1,1.920406222E-1
1.690872590E1,9.262236953E-2,8.433752060E-1,1.784488708E-1
1.692796496E1,1.477529258E-1,4.270708263E-1,2.323576957E-1
1.694720402E1,1.210275814E-1,3.199404106E-2,3.305542171E-1
1.696644308E1,9.140064567E-2,-1.752418280E-1,4.232529402E-1
1.698568215E1,4.894553870E-2,-2.622900605E-1,4.357756674E-1
1.700492121E1,-3.657552972E-2,-2.401462197E-1,3.615556061E-1
1.702416038E1,-1.132390574E-1,-1.048396677E-1,2.880991101E-1
1.704339944E1,-1.260672212E-1,8.513928205E-2,2.254854590E-1
1.706263850E1,-9.628756344E-2,2.317468226E-1,1.459203213E-1
1.708187756E1,-8.681915700E-2,2.570977211E-1,7.215840369E-2
1.710111662E1,-1.043815166E-1,1.784488708E-1,1.886045001E-2
1.712035569E1,-8.345939964E-2,1.651625633E-1,9.392046370E-3
1.713959475E1,-5.688678101E-2,1.836412251E-1,1.351538301E-2
1.715883392E1,-6.681333482E-2,1.387426704E-1,1.076649129E-2
1.717807298E1,-1.225547493E-1,3.657552972E-2,1.603520010E-3
1.719731204E1,-1.969275326E-1,-7.887791097E-2,1.091920771E-2
1.721655110E1,-1.902080178E-1,-7.719803602E-2,3.367391974E-2
1.723579017E1,-9.506583214E-2,2.328922041E-2,2.664897591E-2
1.725502923E1,7.597630471E-2,5.826122686E-2,-1.534797717E-2
1.727426829E1,2.404516488E-1,-4.619665071E-2,-4.894553870E-2
1.729350735E1,2.616792023E-1,-1.923460513E-1,-2.832885459E-2
1.731274652E1,1.677587330E-1,-2.687041461E-1,6.490438245E-3
1.733198558E1,1.069776937E-1,-1.891390085E-1,7.864884101E-3
1.735122465E1,1.359937787E-1,-5.581776798E-2,-1.183550525E-2
1.737046371E1,2.297615111E-1,-3.275762498E-2,-1.702785492E-2
1.738970277E1,1.740200967E-1,-1.827249229E-1,-5.490147322E-2
1.740894183E1,-1.234710440E-1,-1.976911128E-1,-6.849320978E-2
1.742818090E1,-3.710239828E-1,1.213330179E-1,-7.559451740E-3
1.744741996E1,-3.986656368E-1,4.009563625E-1,6.666062027E-2
1.746665912E1,-1.624136716E-1,4.739547074E-1,1.216384470E-1
1.748589819E1,2.044106275E-1,2.441168427E-1,1.407279670E-1
1.750513725E1,4.586831033E-1,-1.706603467E-1,1.605810821E-1
1.752437631E1,5.119810700E-1,-4.728856981E-1,2.027307451E-1
1.754361538E1,4.092030525E-1,-5.118283033E-1,2.190713882E-1
1.756285444E1,2.532798052E-1,-3.184896111E-1,1.793651730E-1
1.758209350E1,6.864593178E-2,-3.214675933E-2,7.124210149E-2
1.760133256E1,-1.437823027E-1,1.749363989E-1,-6.146826968E-2
1.762057173E1,-3.442986608E-1,3.183369040E-1,-1.379790753E-1
1.763981079E1,-4.724275470E-1,4.067595899E-1,-1.514181048E-1
1.765904985E1,-4.947241247E-1,4.359283745E-1,-1.425605714E-1
1.767828892E1,-4.307360351E-1,4.133263826E-1,-1.094211563E-1
1.769752798E1,-2.995528281E-1,3.351356983E-1,-4.665479809E-2
1.771676704E1,-1.193477064E-1,1.763108522E-1,3.138317913E-2
1.773600610E1,4.634936526E-2,1.290451828E-2,9.033162892E-2
1.775524517E1,1.427132785E-1,-4.833467677E-2,1.243873388E-1
1.777448433E1,1.544724256E-1,-6.795870606E-3,1.443931609E-1
1.779372340E1,1.094211563E-1,1.242346242E-1,1.614973694E-1
1.781296246E1,6.131555140E-2,2.729802132E-1,1.485165060E-1
1.783220152E1,8.254310489E-2,4.310414493E-1,1.404225379E-1
1.785144058E1,1.127809063E-1,5.267944932E-1,1.798233241E-1
1.787067965E1,1.060613990E-1,4.597521126E-1,2.572504282E-1
1.788991871E1,7.078395784E-2,3.262781501E-1,3.456731141E-1
1.790915777E1,1.043815166E-1,2.777144015E-1,4.151589870E-1
1.792839683E1,2.477820218E-1,3.646099269E-1,4.476875365E-1
1.794763600E1,4.545597434E-1,6.101775765E-1,4.730384052E-1
1.796687506E1,5.788707137E-1,7.526617646E-1,4.930442274E-1
1.798611412E1,3.340666890E-1,3.360520005E-1,4.806742370E-1
1.800535319E1,-8.559742570E-2,1.051450968E-1,5.136609077E-1
1.802459225E1,-3.343721032E-1,4.898371994E-1,5.916988850E-1
1.804383131E1,-3.201695085E-1,1.033812284E0,5.571850538E-1
1.806307038E1,-1.799760312E-1,1.282892346E0,4.676933587E-1
1.808230944E1,-8.017600514E-3,1.249142170E0,4.809796512E-1
1.810154850E1,6.116283685E-2,9.736421108E-1,5.472584963E-1
1.812078767E1,7.689260691E-2,6.717221737E-1,6.040689349E-1
1.814002673E1,6.375901401E-2,5.295433998E-1,6.509527564E-1
1.815926579E1,1.908952487E-3,5.090794563E-1,6.934078932E-1
1.817850485E1,-9.002619982E-2,4.893790483E-1,7.062360644E-1
1.819774392E1,-1.416442692E-1,4.902953506E-1,6.941714883E-1
1.821698298E1,-1.340084672E-1,5.060251355E-1,6.630173326E-1
1.823622204E1,-7.368556410E-2,5.257254839E-1,5.901717544E-1
1.825546110E1,-7.567087561E-2,5.490911007E-1,5.292379856E-1
1.827470017E1,-1.596647799E-1,5.996401310E-1,4.993056059E-1
1.829393933E1,-2.578612864E-1,6.350703239E-1,4.756345749E-1
1.831317840E1,-2.972620726E-1,6.401099563E-1,4.450913370E-1
1.833241746E1,-2.975675166E-1,5.883391500E-1,4.095084667E-1
1.835165652E1,-3.044397235E-1,5.034289360E-1,3.890444934E-1
1.837089558E1,-3.305542171E-1,3.800342381E-1,3.704131246E-1
1.839013465E1,-3.183369040E-1,2.903898358E-1,3.555996716E-1
1.840937371E1,-1.995237023E-1,2.639699280E-1,3.533089161E-1
1.842861277E1,-8.323032409E-3,1.970802546E-1,3.533089161E-1
1.844785183E1,2.186132371E-1,9.796743840E-2,3.041343093E-1
1.846709090E1,3.870591819E-1,4.619665071E-2,2.218202800E-1
1.848633006E1,3.910298049E-1,4.329504073E-2,1.637881249E-1
1.850556912E1,2.396880686E-1,8.254310489E-2,1.431714296E-1
1.852480819E1,1.199585721E-1,1.903607398E-1,1.579848975E-1
1.854404725E1,1.075885594E-1,2.638172209E-1,1.210275814E-1
1.856328631E1,-4.833467677E-2,1.984546930E-1,1.382081583E-2
1.858252538E1,-3.586539924E-1,3.472002745E-1,1.519526169E-2
1.860176444E1,-6.135373116E-1,6.324741244E-1,1.254563481E-1
1.862100350E1,-5.860484242E-1,8.332959414E-1,2.378554791E-1
1.864024256E1,-2.577085793E-1,8.801797628E-1,3.125337064E-1
1.865948162E1,1.317177117E-1,6.486620307E-1,3.307069242E-1
1.867872069E1,2.694677114E-1,3.281107545E-1,3.685805500E-1
1.869795985E1,2.088394016E-1,1.057559624E-1,4.513527155E-1
1.871719892E1,1.228601784E-1,1.373682171E-1,4.860192835E-1
1.873643798E1,3.459021822E-2,2.978729308E-1,4.154644012E-1
1.875567704E1,-6.803506613E-2,4.745655656E-1,3.041343093E-1
1.877491610E1,-1.718820781E-1,6.498837471E-1,2.277761996E-1
1.879415517E1,-2.560287118E-1,7.412080765E-1,1.926514804E-1
1.881339423E1,-3.113119602E-1,7.905353904E-1,1.932623386E-1
1.883263329E1,-3.420079052E-1,8.274927139E-1,1.981492639E-1
1.885187235E1,-2.939023077E-1,8.361974955E-1,2.154061943E-1
1.887111142E1,-1.854738146E-1,7.627410293E-1,2.653443813E-1
1.889035048E1,-5.505418777E-2,6.100248694E-1,3.322340846E-1
1.890958965E1,3.947713599E-2,4.263072610E-1,3.678169549E-1
1.892882871E1,6.543888897E-2,3.227656782E-1,3.736201823E-1
1.894806777E1,5.917752534E-2,3.632354736E-1,3.621664643E-1
1.896730683E1,5.871937796E-2,5.457313061E-1,3.528507650E-1
1.898654590E1,7.597630471E-2,7.722094655E-1,3.811032772E-1
1.900578496E1,1.094211563E-1,8.529962897E-1,4.198931754E-1
1.902502402E1,1.587484777E-1,7.357102633E-1,4.411207438E-1
1.904426308E1,2.233474404E-1,6.034580469E-1,4.889208972E-1
1.906350215E1,2.642753720E-1,5.190060139E-1,5.289325118E-1
1.908274121E1,2.816850245E-1,4.892263412E-1,5.206858516E-1
1.910198027E1,3.065777719E-1,6.010146141E-1,4.982365966E-1
1.912121933E1,3.766745031E-1,8.348230720E-1,4.750237167E-1
1.914045850E1,3.345248103E-1,8.151226640E-1,4.664716125E-1
1.915969756E1,-1.916588284E-2,4.828122556E-1,4.533380270E-1
1.917893663E1,-3.325395286E-1,5.973494053E-1,4.988474548E-1
1.919817569E1,-4.527271688E-1,1.011210322E0,5.588648915E-1
1.921741475E1,-3.433823586E-1,1.362610221E0,5.588648915E-1
1.923665381E1,-9.689842910E-2,1.469053388E0,5.429824591E-1
1.925589288E1,7.307469845E-2,1.204854369E0,5.445095897E-1
1.927513194E1,7.673988491E-2,8.036689758E-1,5.631409883E-1
1.929437100E1,-3.779725730E-2,5.727620721E-1,6.143009067E-1
1.931361006E1,-1.654679924E-1,5.776489973E-1,6.868410707E-1
1.933284913E1,-2.662606835E-1,6.178133488E-1,7.212022543E-1
1.935208819E1,-2.940550447E-1,6.549233794E-1,7.263945937E-1
1.937132725E1,-2.451858521E-1,6.558396816E-1,6.883682609E-1
1.939056642E1,-1.172096804E-1,6.853139400E-1,6.512582302E-1
1.940980548E1,-1.565340906E-2,6.608793139E-1,6.234638691E-1
1.942904454E1,1.718057133E-2,5.913934708E-1,5.976548195E-1
1.944828360E1,1.595884189E-2,5.298488140E-1,5.623773932E-1
1.946752267E1,3.367391974E-2,5.164098144E-1,4.840339720E-1
1.948676173E1,2.054032870E-2,5.281689763E-1,3.966803253E-1
1.950600079E1,-2.130390890E-2,5.377900600E-1,3.459785283E-1
1.952523985E1,-7.903063297E-2,4.731911421E-1,2.974147797E-1
1.954447892E1,-1.239291951E-1,3.588066995E-1,2.427423894E-1
1.956371798E1,-1.191949919E-1,2.963457704E-1,2.036470473E-1
1.958295704E1,2.756527252E-2,3.027598560E-1,1.734092385E-1
1.960219610E1,2.607629001E-1,2.210566849E-1,1.333975941E-1
1.962143527E1,3.887390792E-1,2.084576152E-2,8.391755074E-2
1.964067433E1,3.456731141E-1,-1.028543562E-1,4.192059487E-2
1.965991340E1,1.934150606E-1,-6.452259421E-2,7.254019380E-3
1.967915246E1,7.002037764E-2,4.283689335E-2,-4.810560029E-3
1.969839152E1,1.037706509E-1,9.155336022E-2,-2.008217946E-2
1.971763058E1,1.471420527E-1,4.657844082E-3,-1.155297980E-1
1.973686965E1,-5.413788930E-2,-4.680751264E-2,-2.001345754E-1
1.975610871E1,-3.809505403E-1,1.929569095E-1,-1.790597439E-1
1.977534777E1,-5.787180066E-1,4.812850952E-1,-9.277509153E-2
1.979458683E1,-4.851029813E-1,5.953640938E-1,3.436114406E-3
1.981382590E1,-1.631772518E-1,5.284743905E-1,8.529199660E-2
1.983306496E1,1.535561383E-1,1.964693815E-1,1.508072466E-1
1.985230412E1,2.433532625E-1,-2.545015514E-1,1.944840699E-1
1.987154319E1,1.245400533E-1,-5.054142475E-1,2.809214294E-1
1.989078225E1,-2.977965865E-3,-4.221839309E-1,3.242928386E-1
1.991002131E1,-3.886627033E-2,-1.966221035E-1,2.422842383E-1
1.992926038E1,-8.193223923E-2,8.743002266E-2,1.111010313E-1
1.994849944E1,-1.906661689E-1,3.168097436E-1,3.046688065E-2
1.996773850E1,-3.307069242E-1,4.008036554E-1,7.635809743E-5
1.998697756E1,-4.145480990E-1,4.316523373E-1,4.352411721E-3
2.000621662E1,-4.121046662E-1,4.492146969E-1,3.520108387E-2
2.002545569E1,-3.337612450E-1,4.212676287E-1,8.254310489E-2
2.004469475E1,-2.147953212E-1,3.293324709E-1,1.451567411E-1
2.006393381E1,-8.697187155E-2,2.526689470E-1,2.163224965E-1
2.008317288E1,-1.641699113E-2,2.289979309E-1,2.584721744E-1
2.010241204E1,1.168278884E-2,2.743546367E-1,2.700785995E-1
2.012165110E1,3.436114406E-3,3.641517758E-1,2.850447893E-1
2.014089017E1,2.451094985E-2,4.704422355E-1,3.071886301E-1
2.016012923E1,9.842558950E-2,5.970439911E-1,3.207803667E-1
2.017936829E1,1.967748106E-1,6.552288532E-1,3.514763117E-1
2.019860735E1,2.622900605E-1,5.559632778E-1,4.014145136E-1
2.021784642E1,2.862665057E-1,3.815613985E-1,4.495201111E-1
2.023708548E1,3.426187932E-1,3.326922357E-1,4.837285578E-1
2.025632454E1,4.272235632E-1,3.972911835E-1,4.935023785E-1
2.027556360E1,5.794816017E-1,6.175079346E-1,4.907535017E-1
2.029480267E1,6.391936541E-1,6.051379442E-1,4.371501207E-1
2.031404173E1,2.853502035E-1,1.446985900E-1,3.391063213E-1
2.033328079E1,-1.146135032E-1,2.312886715E-1,3.566686809E-1
2.035251985E1,-3.160461783E-1,7.438042164E-1,4.064541459E-1
2.037175902E1,-3.018435538E-1,1.096273184E0,4.263072610E-1
2.039099808E1,-8.361211419E-2,1.075198412E0,4.664716125E-1
2.041023715E1,2.193768173E-1,6.998219490E-1,5.141190886E-1
2.042947621E1,3.858374655E-1,1.908188909E-1,5.216021538E-1
2.044871527E1,3.378845751E-1,-2.756527252E-2,5.151880980E-1
2.046795433E1,1.572213173E-1,4.466948658E-2,5.168679357E-1
2.048719340E1,-2.328922041E-2,2.178496569E-1,4.654026031E-1
2.050643246E1,-1.526398361E-1,3.846157491E-1,3.966803253E-1
2.052567152E1,-2.244164497E-1,4.782307744E-1,3.265835941E-1
2.054491058E1,-2.224311382E-1,5.413025618E-1,2.879463732E-1
2.056414965E1,-2.338848561E-1,5.295433998E-1,2.638172209E-1
2.058338871E1,-2.432005405E-1,4.928915203E-1,2.599993348E-1
2.060262777E1,-2.534325123E-1,4.108829200E-1,2.609156072E-1
2.062186683E1,-2.059377879E-1,3.229183853E-1,2.632063627E-1
2.064110590E1,-1.288161129E-1,2.662606835E-1,2.418260872E-1
2.066034496E1,-4.711294547E-2,2.442695498E-1,1.963166744E-1
2.067958412E1,-1.229365356E-2,2.212094069E-1,1.573740393E-1
2.069882319E1,-3.306305781E-2,1.871536970E-1,1.323285848E-1
2.071806225E1,-3.229947388E-2,1.628718227E-1,1.214857325E-1
2.073730131E1,1.141553521E-1,1.156825200E-1,9.094249457E-2
2.075654038E1,3.108538091E-1,3.130682046E-3,1.382081583E-2
2.077577944E1,4.388299882E-1,-5.047270283E-2,-6.085740402E-2
2.079501850E1,4.402044415E-1,-4.176788032E-2,-9.506583214E-2
2.081425756E1,3.319286406E-1,-7.689260691E-2,-1.347720474E-1
2.083349663E1,1.960112303E-1,-9.918916970E-2,-1.683696061E-1
2.085273569E1,9.155336022E-2,-5.459604040E-2,-2.096029818E-1
2.087197475E1,1.121700481E-1,7.712167688E-3,-2.479347438E-1
2.089121381E1,1.868482679E-1,-1.433241516E-1,-2.963457704E-1
2.091045288E1,1.263726503E-1,-3.948477209E-1,-3.267363012E-1
2.092969194E1,-2.634354308E-2,-3.800342381E-1,-2.810741663E-1
2.094893100E1,-1.653152853E-1,-2.131154537E-1,-2.395353466E-1
2.096817017E1,-1.957058012E-1,-9.231694043E-2,-2.557232678E-1
2.098740923E1,-1.274416596E-1,-5.077813566E-2,-2.767980993E-1
2.100664829E1,-5.826122686E-2,-1.498909444E-1,-2.784779668E-1
2.102588735E1,-9.124792367E-2,-3.339139521E-1,-2.659552395E-1
2.104512642E1,-1.799760312E-1,-3.830885887E-1,-2.260963321E-1
2.106436548E1,-2.574031353E-1,-2.570977211E-1,-1.979965419E-1
2.108360454E1,-2.829067409E-1,-1.288161129E-1,-2.076176703E-1
2.110284360E1,-2.786307037E-1,-6.192641705E-2,-2.083812505E-1
2.112208267E1,-2.709949017E-1,-1.886045001E-2,-1.871536970E-1
2.114132173E1,-2.532798052E-1,2.084576152E-2,-1.793651730E-1
2.116056079E1,-2.673296928E-1,9.521854669E-2,-1.756999791E-1
2.117979985E1,-3.128391206E-1,2.178496569E-1,-1.448513120E-1
2.119903892E1,-2.961930633E-1,3.067304790E-1,-8.147408813E-2
2.121827798E1,-2.062432170E-1,2.812268734E-1,-1.336266659E-2
2.123751704E1,-6.101011857E-2,2.016617358E-1,4.085158184E-2
2.125675610E1,6.330086291E-2,1.356883347E-1,7.719803602E-2
2.127599517E1,1.112537459E-1,1.367573589E-1,1.329394430E-1
2.129523423E1,8.804088831E-2,1.792124510E-1,1.799760312E-1
2.131447340E1,3.993528336E-2,2.735910714E-1,1.804341823E-1
2.133371246E1,-8.933897130E-3,4.710530937E-1,1.909715980E-1
2.135295152E1,-1.046105940E-2,6.634755135E-1,2.613737583E-1
2.137219058E1,4.314232618E-2,6.631700993E-1,3.420079052E-1
2.139142965E1,7.689260691E-2,4.664716125E-1,4.179078639E-1
2.141066871E1,7.154753804E-2,3.245982826E-1,4.986947477E-1
2.142990777E1,1.439350098E-1,4.004982114E-1,5.622246861E-1
2.144914683E1,3.481165767E-1,6.646972299E-1,5.962803960E-1
2.146838590E1,5.810087919E-1,8.668934703E-1,6.062069535E-1
2.148762496E1,5.891027451E-1,6.825650334E-1,5.872701406E-1
2.150686402E1,2.764926851E-1,2.818377316E-1,5.287798047E-1
2.152610308E1,-1.809686981E-2,4.640281498E-1,5.749000907E-1
2.154534215E1,-1.625663936E-1,8.452077508E-1,5.941423774E-1
2.156458121E1,-2.030361742E-1,9.977712631E-1,5.261836648E-1
2.158382027E1,-1.355356276E-1,9.618829489E-1,5.487856269E-1
2.160305933E1,1.450803829E-3,7.094430923E-1,5.984184146E-1
2.162229840E1,1.190422773E-1,3.765217662E-1,5.910880566E-1
2.164153746E1,6.956222653E-2,1.535561383E-1,5.594757795E-1
2.166077652E1,-9.949459881E-2,1.517235339E-1,5.712349415E-1
2.168001558E1,-2.612210512E-1,2.644280791E-1,5.730675459E-1
2.169925475E1,-3.203222156E-1,3.739255965E-1,5.173261166E-1
2.171849381E1,-2.485456020E-1,4.823541045E-1,4.363865256E-1
2.173773288E1,-1.708130687E-1,5.643627048E-1,3.771326542E-1
2.175697194E1,-1.802814752E-1,5.866592526E-1,3.491855860E-1
2.177621100E1,-2.279289216E-1,5.458840132E-1,3.572795391E-1
2.179545006E1,-2.404516488E-1,4.522690177E-1,3.849211633E-1
2.181468912E1,-1.456148922E-1,3.743837476E-1,3.896553814E-1
2.183392819E1,-1.779143699E-2,3.143662810E-1,3.749946058E-1
2.185316725E1,3.428478539E-2,2.603047490E-1,3.652207851E-1
2.187240631E1,9.850194678E-3,2.554178238E-1,3.497964442E-1
2.189164538E1,-3.718639165E-2,2.790888548E-1,3.374264240E-1
2.191088444E1,-1.931859925E-2,3.384954333E-1,3.204749227E-1
2.193012350E1,1.068249792E-1,3.710239828E-1,2.450331300E-1
2.194936256E1,2.358701676E-1,3.818668425E-1,1.700494885E-1
2.196860162E1,2.827540338E-1,3.911825418E-1,1.495855153E-1
2.198784069E1,2.448804229E-1,4.227947891E-1,1.491273642E-1
2.200707975E1,1.879172772E-1,4.884627461E-1,1.659261435E-1
2.202631881E1,1.486692131E-1,5.057196617E-1,1.880699992E-1
2.204555788E1,1.477529258E-1,4.713585377E-1,2.415206581E-1
2.206479694E1,2.548069656E-1,3.820195496E-1,3.146717250E-1
2.208403600E1,5.171734095E-1,2.033416182E-1,3.792706728E-1
2.210327506E1,6.451495886E-1,-9.827287495E-2,3.636936247E-1
2.212251413E1,4.709003866E-1,-2.189186662E-1,2.937496006E-1
2.214175319E1,1.127809063E-1,-2.298378758E-2,3.117701113E-1
2.216099225E1,-2.289979309E-1,3.595702946E-1,3.552942276E-1
2.218023142E1,-2.911534309E-1,7.318923473E-1,3.840048611E-1
2.219947048E1,-1.621082425E-1,7.775545120E-1,3.922515512E-1
2.221870954E1,1.886045001E-2,5.052615404E-1,3.891972303E-1
2.223794860E1,9.552398324E-2,2.570977211E-1,4.263072610E-1
2.225718767E1,6.299543381E-2,2.888626754E-1,5.150353909E-1
2.227642673E1,-1.450803829E-3,4.519635737E-1,5.617665052E-1
2.229566579E1,-3.535379842E-2,5.602393746E-1,5.162571073E-1
2.231490485E1,-5.108356848E-2,6.205622554E-1,4.428006113E-1
2.233414392E1,-9.384410083E-2,7.065414786E-1,3.685805500E-1
2.235338298E1,-1.532506943E-1,8.551343083E-1,3.154352903E-1
2.237262204E1,-2.121991515E-1,9.915099144E-1,2.935968935E-1
2.239186110E1,-2.163224965E-1,1.113072038E0,2.894735336E-1
2.241110017E1,-1.647044122E-1,1.118264318E0,3.059668839E-1
2.243033923E1,-8.132137358E-2,1.026176453E0,3.841575980E-1
2.244957829E1,2.054032870E-2,8.502474427E-1,4.715112448E-1
2.246881735E1,8.590286225E-2,6.714167595E-1,4.999164641E-1
2.248805642E1,9.827287495E-2,6.442332864E-1,5.096902847E-1
2.250729548E1,6.513345987E-2,8.047379851E-1,5.347357392E-1
2.252653454E1,2.313650399E-2,9.840267897E-1,5.425242782E-1
2.254577360E1,-6.948587019E-3,1.003879905E0,5.489383340E-1
2.256501267E1,-1.565340906E-2,8.760564327E-1,5.793288946E-1
2.258425173E1,-1.458439697E-2,7.354048491E-1,6.060542464E-1
2.260349079E1,-1.214093715E-2,7.354048491E-1,6.402626634E-1
2.262272985E1,2.115119249E-2,8.168025613E-1,6.811906099E-1
2.264196892E1,1.169042438E-1,9.229403138E-1,6.891318560E-1
2.266120798E1,2.610683441E-1,9.485966563E-1,6.872992516E-1
2.268044704E1,2.464075834E-1,6.333904266E-1,6.514109373E-1
2.269968610E1,-1.580612548E-2,3.600284159E-1,5.973494053E-1
2.271892517E1,-2.975675166E-1,5.891027451E-1,5.851321220E-1
2.273816423E1,-5.054142475E-1,1.035950303E0,5.451204777E-1
2.275740329E1,-5.484802127E-1,1.419878840E0,5.336667299E-1
2.277664235E1,-3.087157905E-1,1.573205829E0,6.068177819E-1
2.279588142E1,2.252563834E-2,1.261512160E0,6.349175572E-1
2.281512048E1,2.535852492E-1,8.444442153E-1,6.336958408E-1
2.283435954E1,2.682459950E-1,6.587412953E-1,6.663771272E-1
2.285359860E1,1.054505333E-1,6.723330617E-1,6.903535724E-1
2.287283767E1,-1.170569658E-1,7.453314066E-1,6.708058715E-1
2.289207683E1,-3.145190179E-1,8.342122436E-1,6.243801713E-1
2.291131590E1,-4.339430630E-1,9.250783324E-1,5.747473836E-1
2.293055496E1,-4.563923478E-1,9.634101391E-1,5.310705900E-1
2.294979402E1,-4.070650041E-1,8.989638686E-1,5.037343502E-1
2.296903308E1,-3.235292733E-1,7.587704062E-1,5.153408051E-1
2.298827215E1,-2.366337478E-1,6.028471589E-1,5.252673626E-1
2.300751121E1,-1.764635593E-1,4.962512851E-1,5.183951259E-1
2.302675027E1,-1.633299738E-1,4.276817143E-1,4.931969643E-1
2.304598933E1,-1.705076247E-1,3.969857395E-1,4.443277717E-1
2.306522840E1,-2.097556889E-1,3.945422769E-1,3.557523787E-1
2.308446746E1,-2.389244884E-1,4.644863009E-1,2.864192128E-1
2.310370652E1,-1.983019859E-1,4.530325830E-1,2.326631248E-1
2.312294558E1,-7.536543906E-2,2.987892330E-1,1.856265366E-1
2.314218465E1,8.605557680E-2,1.585957706E-1,1.427132785E-1
2.316142371E1,1.865428388E-1,1.078939885E-1,1.008690447E-1
2.318066277E1,1.575267613E-1,1.074358448E-1,3.856083751E-2
2.319990183E1,6.574432552E-2,1.448513120E-1,-4.810560029E-3
2.321914090E1,9.697478265E-3,2.034943253E-1,-2.054032870E-2
2.323837996E1,1.381317973E-1,1.727983803E-1,-3.061959706E-2
2.325761902E1,2.546542585E-1,-5.230529606E-2,-1.159879491E-1
2.327685808E1,1.379790753E-1,-2.015090138E-1,-1.758527011E-1
2.329609715E1,-1.880699992E-1,-1.401171088E-1,-1.685223281E-1
2.331533621E1,-4.687623680E-1,7.673988491E-2,-1.402698308E-1
2.333457527E1,-4.756345749E-1,3.091739416E-1,-1.442404389E-1
2.335381433E1,-2.668715417E-1,4.027889669E-1,-1.650098413E-1
2.337305340E1,-6.956222653E-2,2.432005405E-1,-1.491273642E-1
2.339229246E1,3.871355578E-2,-7.406735327E-3,-1.173623949E-1
2.341153152E1,4.100430012E-2,-1.614973694E-1,-6.727148592E-2
2.343077058E1,3.283398226E-3,-1.355356276E-1,-3.672824427E-2
2.345000965E1,-4.360047355E-2,-5.688678101E-2,-4.848739132E-2
2.346924871E1,-5.673406646E-2,6.589704007E-2,-7.735075057E-2
2.348848777E1,-7.887791097E-2,1.227074638E-1,-1.056032479E-1
2.350772683E1,-1.309541315E-1,1.101847365E-1,-1.075885594E-1
2.352696590E1,-2.209039778E-1,1.103374511E-1,-1.011744812E-1
2.354620496E1,-2.711476088E-1,2.115882933E-1,-8.590286225E-2
2.356544402E1,-2.822958827E-1,2.913061380E-1,-7.780890167E-2
2.358468308E1,-2.864192128E-1,2.749654949E-1,-9.277509153E-2
2.360392215E1,-2.781725526E-1,2.418260872E-1,-7.047852129E-2
2.362316121E1,-2.902371287E-1,1.611919403E-1,-3.199404106E-2
2.364240027E1,-2.723693252E-1,8.788817376E-2,-1.382081583E-2
2.366163944E1,-2.004400045E-1,1.540142894E-1,-5.268708803E-3
2.368087850E1,-1.020907760E-1,3.079521954E-1,1.756236190E-3
2.370011756E1,-2.977965865E-3,4.747183025E-1,1.061377581E-2
2.371935663E1,5.902481079E-2,5.405389667E-1,4.008800164E-2
2.373859569E1,5.184714869E-2,4.554760456E-1,8.895718306E-2
2.375783475E1,3.596466407E-2,3.241401315E-1,1.421024203E-1
2.377707381E1,7.108938694E-2,3.033707142E-1,1.889862865E-1
2.379631288E1,1.373682171E-1,4.227947891E-1,2.421315312E-1
2.381555194E1,2.581667304E-1,6.402626634E-1,2.989419401E-1
2.383479100E1,4.310414493E-1,6.796634197E-1,3.178787529E-1
2.385403006E1,4.195877314E-1,2.865719497E-1,2.586248815E-1
2.387326912E1,1.929569095E-1,-1.002581790E-1,2.037997693E-1
2.389250819E1,2.481638081E-2,6.238456443E-2,2.566395700E-1
2.391174725E1,-2.710712515E-2,4.942659736E-1,2.757290900E-1
2.393098631E1,2.985601686E-2,7.645736337E-1,2.419788092E-1
2.395022538E1,1.396589577E-1,7.204386592E-1,2.457967103E-1
2.396946444E1,2.256381810E-1,4.563923478E-1,2.910007238E-1
2.398870350E1,2.499200553E-1,1.929569095E-1,3.024544120E-1
2.400795767E1,1.866955459E-1,6.055197120E-2,2.862665057E-1
2.402718162E1,4.818195850E-2,4.589121789E-2,2.902371287E-1
2.404642069E1,-1.150716543E-1,1.427896414E-2,2.838230431E-1
2.406565985E1,-2.364810258E-1,7.864884101E-3,2.769508064E-1
2.408489892E1,-2.567922771E-1,6.986765563E-2,2.589302957E-1
2.410413798E1,-2.254854590E-1,1.164461002E-1,2.173915058E-1
2.412337704E1,-2.248746008E-1,1.191949919E-1,1.828776449E-1
2.414261610E1,-2.239582986E-1,9.262236953E-2,1.669951528E-1
2.416185517E1,-2.100611329E-1,4.711294547E-2,1.399643868E-1
2.418109423E1,-1.799760312E-1,1.641699113E-2,1.011744812E-1
2.420033329E1,-1.566104591E-1,-1.756236190E-3,6.131555140E-2
2.421957235E1,-1.413388401E-1,2.313650399E-2,3.520108387E-2
2.423881142E1,-1.582903415E-1,3.794997558E-2,8.781181648E-3
2.425805048E1,-1.651625633E-1,4.222602770E-2,-3.107774630E-2
2.427728954E1,-1.152243689E-1,4.069886729E-2,-5.551233515E-2
2.429652860E1,-3.733910993E-2,9.926552884E-4,-6.330086291E-2
2.431576767E1,5.841394514E-2,-9.460768104E-2,-6.177370250E-2
2.433500673E1,1.369100660E-1,-2.778671086E-1,-6.650790572E-2
2.435424590E1,1.482110620E-1,-4.460076392E-1,-9.949459881E-2
2.437348496E1,6.788235158E-2,-4.852557182E-1,-1.317177117E-1
2.439272402E1,-3.123046272E-2,-4.174497128E-1,-1.436295807E-1
2.441196308E1,-2.130390890E-2,-3.940841556E-1,-1.590539217E-1
2.443120215E1,1.387426704E-1,-5.173261166E-1,-2.082285285E-1
2.445044121E1,2.134208828E-1,-7.097485065E-1,-3.281107545E-1
2.446968027E1,1.840230078E-2,-7.115811110E-1,-3.945422769E-1
2.448891933E1,-2.357174456E-1,-3.716348708E-1,-3.388008773E-1
2.450815840E1,-2.651916742E-1,9.239329956E-3,-2.713003159E-1
2.452739746E1,-4.115701467E-2,2.710712515E-2,-2.596938908E-1
2.454663652E1,1.892917305E-1,-3.111592531E-1,-2.480874658E-1
2.456587558E1,2.827540338E-1,-6.506473422E-1,-2.030361742E-1
2.458511475E1,2.378554791E-1,-6.843976378E-1,-1.555414498E-1
2.460435381E1,1.078939885E-1,-4.605156779E-1,-1.437823027E-1
2.462359288E1,-4.146244749E-2,-1.946367919E-1,-2.007454336E-1
2.464283194E1,-1.659261435E-1,-2.863428742E-2,-2.790888548E-1
2.466207100E1,-2.377027571E-1,2.863428742E-2,-3.149771392E-1
2.468131006E1,-2.619846463E-1,1.168278884E-2,-3.161988854E-1
2.470054913E1,-2.418260872E-1,-8.475748822E-3,-2.919169962E-1
2.471978819E1,-1.857792437E-1,2.328922041E-2,-2.673296928E-1
2.473902725E1,-8.193223923E-2,7.689260691E-2,-2.250273079E-1
2.475826631E1,6.070468575E-2,1.060613990E-1,-1.618028134E-1
2.477750548E1,1.836412251E-1,4.008800164E-2,-9.033162892E-2
2.479674454E1,2.164752036E-1,-7.292198390E-2,-3.061959706E-2
2.481598360E1,1.917351782E-1,-9.170607477E-2,8.628465235E-3
2.483522267E1,1.483637840E-1,-9.392046370E-3,1.320995111E-2
2.485446173E1,9.308052063E-2,1.914297491E-1,2.588539571E-2
2.487370079E1,4.176788032E-2,3.992764950E-1,4.909825698E-2
2.489293985E1,3.627009690E-2,5.107592940E-1,9.384410083E-2
2.491217892E1,7.735075057E-2,4.281398654E-1,1.628718227E-1
2.493141798E1,1.698967665E-1,2.467130125E-1,2.399934977E-1
2.495065715E1,2.740492225E-1,1.051450968E-1,3.077994883E-1
2.496989621E1,3.774380684E-1,6.116283685E-2,3.522399068E-1
2.498913527E1,5.468003154E-1,1.940259188E-1,3.244455457E-1
2.500837433E1,7.051670551E-1,4.649444520E-1,2.763399482E-1
2.502761340E1,4.953349829E-1,3.873646259E-1,1.697440445E-1
2.504685246E1,-3.229947388E-2,6.956222653E-2,5.047270283E-2
2.506609152E1,-4.873937368E-1,2.361755967E-1,1.130863428E-1
2.508533058E1,-5.237401724E-1,6.566032767E-1,2.409097999E-1
2.510456975E1,-1.494327933E-1,8.187878728E-1,2.435059696E-1
2.512380881E1,3.097847998E-1,5.003746152E-1,1.731038094E-1
2.514304788E1,4.504364133E-1,7.406735327E-3,1.825722158E-1
2.516228694E1,3.136027157E-1,-2.786307037E-1,2.502254844E-1
2.518152600E1,8.956804872E-2,-2.577085793E-1,3.010799885E-1
2.520076506E1,-9.414953738E-2,-2.048687786E-1,2.844339013E-1
2.522000413E1,-1.938732117E-1,-1.526398361E-1,2.282343507E-1
2.523924319E1,-2.008981556E-1,-3.077231348E-2,1.827249229E-1
2.525848235E1,-1.439350098E-1,9.369138628E-2,1.556941569E-1
2.527772142E1,-7.597630471E-2,1.124754772E-1,1.191949919E-1
2.529696048E1,-3.764454275E-2,2.741255611E-2,1.004109010E-1
2.531619954E1,-1.580612548E-2,-5.459604040E-2,9.644027799E-2
2.533543860E1,-2.420551702E-2,-9.338594973E-2,9.155336022E-2
2.535467767E1,-5.337430909E-2,-7.506000996E-2,9.430225194E-2
2.537391673E1,-1.059086844E-1,-1.054505333E-1,9.476039559E-2
2.539315590E1,-1.480583549E-1,-1.511126757E-1,7.399099320E-2
2.541239496E1,-1.303432733E-1,-1.457676142E-1,2.802342176E-2
2.543163402E1,-7.276926935E-2,-1.216384470E-1,-4.344775900E-2
2.545087308E1,-2.084576152E-2,-5.108356848E-2,-1.088102907E-1
2.547011215E1,3.794997558E-2,5.856665969E-2,-1.393535286E-1
2.548935121E1,8.544471115E-2,2.664897591E-2,-1.792124510E-1
2.550859027E1,1.179732606E-1,-1.085048541E-1,-2.257908881E-1
2.552782944E1,7.261654735E-2,-2.328158319E-1,-2.384663373E-1
2.554706850E1,-6.131555140E-2,-2.644280791E-1,-2.146426141E-1
2.556630756E1,-1.587484777E-1,-1.659261435E-1,-1.938732117E-1
2.558554663E1,-1.265253723E-1,-4.726566374E-2,-1.981492639E-1
2.560478569E1,-8.544471115E-2,-4.482220486E-2,-2.224311382E-1
2.562402475E1,-1.448513120E-1,-7.254019380E-3,-2.019671649E-1
2.564326381E1,-2.377027571E-1,5.642863363E-2,-1.234710440E-1
2.566250298E1,-2.858083546E-1,5.345066893E-4,-8.177952468E-2
2.568174204E1,-3.058141768E-1,-6.650790572E-2,-4.619665071E-2
2.570098110E1,-1.851683855E-1,-5.215258151E-2,-4.352411721E-3
2.572022017E1,4.298960790E-2,-4.986183718E-2,3.336848691E-2
2.573945923E1,2.060905099E-1,-2.326631248E-1,4.222602770E-2
2.575869829E1,2.952767611E-1,-4.114937782E-1,3.436114406E-3
2.577793746E1,2.990946770E-1,-3.762163520E-1,-1.763872057E-2
2.579717652E1,1.941786408E-1,-2.268599123E-1,-6.238456443E-2
2.581641558E1,3.993528336E-2,-6.421715766E-2,-1.335503161E-1
2.583565465E1,-7.215840369E-2,7.719803602E-2,-2.034943253E-1
2.585489371E1,-1.239291951E-1,1.897498667E-1,-2.503781915E-1
2.587413277E1,-1.266780794E-1,2.340375632E-1,-2.816850245E-1
2.589337194E1,-1.182786897E-1,2.161697745E-1,-2.844339013E-1
2.591261100E1,-1.020907760E-1,1.938732117E-1,-2.470184416E-1
2.593185006E1,-7.292198390E-2,1.471420527E-1,-1.984546930E-1
2.595108913E1,-1.748600416E-2,4.833467677E-2,-1.668424457E-1
2.597032819E1,4.634936526E-2,-1.947131567E-2,-1.314122826E-1
2.598956735E1,5.902481079E-2,-8.468113095E-2,-1.181259751E-1
2.600880642E1,6.849320978E-2,-1.107956022E-1,-1.367573589E-1
2.602804548E1,6.925679743E-2,-1.216384470E-1,-1.671478748E-1
2.604728454E1,3.474293277E-2,-5.215258151E-2,-1.891390085E-1
2.606652360E1,-8.399390499E-4,9.231694043E-2,-2.088394016E-1
2.608576267E1,5.115992390E-3,1.515708268E-1,-2.242637277E-1
2.610500183E1,2.252563834E-2,3.535379842E-2,-2.002872825E-1
2.612424090E1,2.214384731E-3,-2.210566849E-1,-1.697440445E-1
2.614347996E1,4.115701467E-2,-4.113410711E-1,-1.885281354E-1
2.616271902E1,1.460730433E-1,-4.279871285E-1,-2.193768173E-1
2.618195808E1,2.057850659E-1,-3.317759335E-1,-2.601520419E-1
2.620119725E1,2.216675580E-1,-2.036470473E-1,-3.003163934E-1
2.622043631E1,1.786015928E-1,-2.430478185E-1,-3.620137274E-1
2.623967538E1,5.154171586E-2,-4.621955752E-1,-4.311941862E-1
2.625891444E1,-2.123518735E-1,-6.048324704E-1,-4.395935535E-1
2.627815350E1,-4.299724400E-1,-4.803687930E-1,-3.956113160E-1
2.629739256E1,-3.957640231E-1,-1.865428388E-1,-3.366628587E-1
2.631663173E1,-1.335503161E-1,-7.704532146E-2,-3.111592531E-1
2.633587079E1,1.692859083E-1,-3.198640645E-1,-2.767980993E-1
2.635510985E1,3.482692838E-1,-8.369610906E-1,-2.406043708E-1
2.637434892E1,4.284452796E-1,-1.274187565E0,-1.996764243E-1
2.639358798E1,3.893499374E-1,-1.461875796E0,-1.874591261E-1
2.641282715E1,2.450331300E-1,-1.503567338E0,-2.447277009E-1
2.643206621E1,2.115119249E-2,-1.434081435E0,-3.326922357E-1
2.645130527E1,-1.544724256E-1,-1.244713306E0,-4.330267608E-1
2.647054433E1,-2.317468226E-1,-9.954805374E-1,-5.687914491E-1
2.648978340E1,-2.522107959E-1,-7.653372288E-1,-6.814960241E-1
2.650902256E1,-2.638172209E-1,-6.947823167E-1,-7.192169428E-1
2.652826163E1,-1.889862865E-1,-7.190641761E-1,-7.202859521E-1
2.654750069E1,-7.170025259E-2,-8.604794145E-1,-7.450259328E-1
2.656673975E1,4.069886729E-2,-9.249256253E-1,-7.380009890E-1
2.658597881E1,1.065195426E-1,-9.528726935E-1,-7.186060548E-1
2.660521798E1,1.280525327E-1,-1.015180945E0,-7.213549614E-1
2.662445704E1,8.956804872E-2,-1.090775371E0,-7.500655651E-1
2.664369610E1,3.856083751E-2,-1.102534533E0,-7.870228887E-1
2.666293517E1,2.435823344E-2,-1.099327564E0,-8.467349410E-1
2.668217423E1,6.635518372E-2,-1.087721109E0,-9.270636439E-1
2.670141340E1,1.486692131E-1,-1.102381825E0,-9.724203944E-1
2.672065246E1,2.280816436E-1,-1.218751550E0,-9.777654409E-1
2.673989152E1,2.855029404E-1,-1.434844971E0,-9.814306498E-1
2.675913058E1,3.082576394E-1,-1.577634692E0,-9.948696494E-1
2.677836965E1,3.172678947E-1,-1.573205829E0,-1.003574491E0
2.679760881E1,3.855320215E-1,-1.489211917E0,-1.017013550E0
2.681684788E1,4.469239414E-1,-1.489059210E0,-1.074282050E0
2.683608694E1,3.158934414E-1,-1.642844439E0,-1.159192324E0
2.685532600E1,7.918334752E-2,-1.625129342E0,-1.167591691E0
2.687456517E1,-1.375209391E-1,-1.520366073E0,-1.171256900E0
2.689380423E1,-1.595120728E-1,-1.321376920E0,-1.220889568E0
2.691304329E1,1.229365356E-2,-1.068020701E0,-1.260137677E0
2.693228235E1,1.320231557E-1,-1.095662355E0,-1.226540089E0
2.695152142E1,1.243873388E-1,-1.321529627E0,-1.149265766E0
2.697076058E1,2.909243479E-2,-1.517922640E0,-1.053359985E0
2.698999965E1,-1.088102907E-1,-1.554269075E0,-1.008461356E0
2.700923871E1,-2.751182318E-1,-1.468442559E0,-1.035797596E0
2.702847777E1,-4.101193547E-1,-1.270675063E0,-1.052138209E0
2.704771683E1,-4.467712343E-1,-1.134299517E0,-1.067257166E0
2.706695600E1,-4.116465151E-1,-1.130787015E0,-1.094135165E0
2.708619506E1,-3.778962195E-1,-1.150487423E0,-1.077489138E0
2.710543413E1,-3.311650753E-1,-1.090469956E0,-1.055192590E0
2.712467319E1,-1.891390085E-1,-9.647845626E-1,-1.042822480E0
2.714391235E1,-3.306305781E-2,-8.968258500E-1,-1.004490733E0
2.716315142E1,3.917170316E-2,-9.246202111E-1,-9.484439492E-1
2.718239048E1,3.764454275E-2,-9.511927962E-1,-8.914808035E-1
2.720162954E1,4.069886729E-2,-9.136246443E-1,-8.441387415E-1
2.722086871E1,6.436987966E-2,-8.166498542E-1,-8.206204772E-1
2.724010777E1,9.246965498E-2,-6.153699160E-1,-7.693078518E-1
2.725934683E1,1.537088454E-1,-4.391354322E-1,-6.982948184E-1
2.727858590E1,1.874591261E-1,-4.481456876E-1,-6.523272395E-1
2.729782506E1,1.827249229E-1,-5.965858102E-1,-6.083449721E-1
2.731706412E1,2.610683441E-1,-6.176606417E-1,-5.658898354E-1
2.733630319E1,4.049269855E-1,-5.261836648E-1,-5.495492220E-1
2.735554225E1,5.238928795E-1,-4.351648092E-1,-5.409971476E-1
2.737478131E1,5.709294677E-1,-2.193768173E-1,-5.228238702E-1
2.739402048E1,5.871174335E-1,1.204167232E-1,-4.789943397E-1
2.741325954E1,5.778017044E-1,1.430187225E-1,-4.453967810E-1
2.743249860E1,5.115228891E-1,-2.235001475E-1,-4.373028278E-1
2.745173767E1,3.575849831E-1,-6.839394569E-1,-4.311941862E-1
2.747097683E1,1.682168841E-1,-7.387645841E-1,-3.546833694E-1
2.749021590E1,9.308052063E-2,-4.707476795E-1,-2.766453922E-1
2.750945496E1,1.072831303E-1,-3.146717250E-1,-2.870301008E-1
2.752869402E1,1.640935540E-1,-4.087449014E-1,-2.871828079E-1
2.754793319E1,2.091448307E-1,-5.785652995E-1,-2.517526448E-1
2.756717225E1,2.523635030E-1,-7.641154528E-1,-1.950949430E-1
2.758641131E1,2.021198869E-1,-1.046487689E0,-1.949422210E-1
2.760565048E1,6.177370250E-2,-1.179350853E0,-2.428951114E-1
2.762488954E1,-8.804088831E-2,-1.041600823E0,-3.139081299E-1
2.764412860E1,-1.731038094E-1,-7.486911416E-1,-4.008036554E-1
2.766336767E1,-1.834885031E-1,-4.707476795E-1,-4.847975671E-1
2.768260673E1,-2.030361742E-1,-4.099666178E-1,-5.527562499E-1
2.770184590E1,-1.895971596E-1,-4.557814896E-1,-5.732202530E-1
2.772108496E1,-1.045342386E-1,-4.814378023E-1,-5.486329198E-1
2.774032402E1,2.496909723E-2,-5.046506524E-1,-5.196168423E-1
2.775956319E1,8.941533417E-2,-5.553524494E-1,-5.101484656E-1
2.777880225E1,5.765036494E-2,-6.416370869E-1,-5.104538798E-1
2.779804215E1,-6.872228696E-4,-7.445678115E-1,-4.876991808E-1
2.781728038E1,-3.123046272E-2,-8.760564327E-1,-4.450913370E-1
2.783651954E1,5.031998456E-2,-9.143882394E-1,-4.580722153E-1
2.785575860E1,1.908188909E-1,-8.949932456E-1,-5.165625215E-1
2.787499767E1,3.192532063E-1,-8.193987608E-1,-5.701659322E-1
2.789423673E1,3.586539924E-1,-7.955750227E-1,-6.262127757E-1
2.791347590E1,3.517817557E-1,-8.206204772E-1,-6.599630117E-1
2.793271496E1,3.452149630E-1,-9.128610492E-1,-6.909644008E-1
2.795195402E1,4.702895284E-1,-9.773072600E-1,-7.444151044E-1
2.797119308E1,6.680569649E-1,-1.109712243E0,-8.186351657E-1
2.799043225E1,6.286562085E-1,-1.435150385E0,-8.983530402E-1
2.800967131E1,3.252091408E-1,-1.642844439E0,-9.545525908E-1
2.802891038E1,-1.412624773E-2,-1.519144297E0,-9.843322635E-1
2.804814944E1,-1.726456583E-1,-1.180877924E0,-1.011363029E0
2.806738860E1,-2.573267929E-2,-8.827759624E-1,-1.113682866E0
2.808662767E1,2.068540901E-1,-8.445969224E-1,-1.187902927E0
2.810586673E1,3.039815724E-1,-1.046029568E0,-1.167897105E0
2.812510590E1,2.769508064E-1,-1.288237453E0,-1.094135165E0
2.814434496E1,1.764635593E-1,-1.513035655E0,-1.015791774E0
2.816358402E1,3.474293277E-2,-1.632917881E0,-9.777654409E-1
2.818282308E1,-8.361211419E-2,-1.569998860E0,-9.785290360E-1
2.820206225E1,-1.579848975E-1,-1.489517450E0,-1.020373225E0
2.822130131E1,-1.799760312E-1,-1.447673202E0,-1.085888505E0
2.824054038E1,-1.915824711E-1,-1.421558738E0,-1.117500782E0
2.825977954E1,-1.967748106E-1,-1.364595532E0,-1.102076411E0
2.827901860E1,-1.584430486E-1,-1.295873284E0,-1.088637352E0
2.829825767E1,-8.223766834E-2,-1.194775105E0,-1.075198412E0
2.831749673E1,-1.183550525E-2,-1.093829751E0,-1.048320293E0
2.833673590E1,3.229947388E-2,-1.031826973E0,-1.007697821E0
2.835597496E1,4.375318810E-2,-9.989929795E-1,-9.715040922E-1
2.837521402E1,2.634354308E-2,-8.945351243E-1,-9.676861763E-1
2.839445319E1,6.795870606E-3,-6.701950431E-1,-9.562324286E-1
2.841369225E1,4.787652567E-2,-4.502837062E-1,-9.024763703E-1
2.843293131E1,1.650098413E-1,-4.276817143E-1,-8.429170251E-1
2.845217038E1,2.984837890E-1,-5.773435831E-1,-7.847321630E-1
2.847140954E1,4.003455043E-1,-7.320450544E-1,-7.222712636E-1
2.849064860E1,4.881573021E-1,-7.728202939E-1,-7.010436654E-1
2.850988767E1,6.127737164E-1,-4.951822758E-1,-7.164680362E-1
2.852912683E1,7.639627457E-1,-8.743002266E-2,-7.163153291E-1
2.854836590E1,6.741656661E-1,-1.685223281E-1,-7.004328370E-1
2.856760496E1,4.350120723E-1,-6.698895693E-1,-6.511055231E-1
2.858684402E1,2.416733801E-1,-1.125136614E0,-6.608793139E-1
2.860608319E1,2.535852492E-1,-1.114293694E0,-6.561451554E-1
2.862532225E1,3.059668839E-1,-1.048778415E0,-6.654608250E-1
2.864456131E1,3.777435124E-1,-1.131550670E0,-6.637809277E-1
2.866380048E1,4.004982114E-1,-1.432859659E0,-6.698895693E-1
2.868303954E1,2.690095901E-1,-1.790673733E0,-7.260891199E-1
2.870227860E1,1.870773360E-2,-1.791284561E0,-7.909935117E-1
2.872151767E1,-2.448804229E-1,-1.452101946E0,-8.471930623E-1
2.874075683E1,-3.526980579E-1,-1.037172079E0,-9.305761456E-1
2.875999590E1,-2.893208265E-1,-7.885500789E-1,-9.759328365E-1
2.877923496E1,-1.625663936E-1,-8.583413959E-1,-9.473749399E-1
2.879847413E1,-7.139482349E-2,-1.098869324E0,-8.847612739E-1
2.881771319E1,-2.451094985E-2,-1.261970282E0,-7.978657484E-1
2.883695225E1,-3.382663801E-2,-1.238604665E0,-7.250201106E-1
2.885619142E1,-1.427896414E-2,-9.938006401E-1,-6.582831740E-1
2.887543048E1,6.528617442E-2,-8.143591285E-1,-6.257545948E-1
2.889466954E1,1.830303669E-1,-7.818305492E-1,-5.956695080E-1
2.891390871E1,2.312886715E-1,-8.638391495E-1,-5.759691000E-1
2.893314777E1,2.202931046E-1,-9.539417028E-1,-5.564214587E-1
2.895238683E1,1.996764243E-1,-9.229403138E-1,-5.336667299E-1
2.897162590E1,2.219729871E-1,-7.934370041E-1,-5.330559015E-1
2.899086506E1,3.091739416E-1,-6.446914077E-1,-5.510764122E-1
2.901010412E1,4.383718371E-1,-5.865065455E-1,-5.768854022E-1
2.902934319E1,5.061778426E-1,-6.443859935E-1,-6.011673212E-1
2.904858235E1,4.994583130E-1,-6.729438901E-1,-6.181188226E-1
2.906782142E1,4.818959534E-1,-6.515636444E-1,-6.424006820E-1
2.908706048E1,4.875464439E-1,-6.547706723E-1,-6.478984356E-1
2.910629965E1,5.043452382E-1,-7.369319797E-1,-6.359865665E-1
2.912553871E1,6.046797633E-1,-8.360447884E-1,-6.362920403E-1
2.914477777E1,6.947823167E-1,-9.479857683E-1,-6.686678529E-1
2.916401683E1,6.205622554E-1,-1.028467178E0,-6.756927967E-1
2.918325600E1,4.279871285E-1,-9.670752883E-1,-6.230056882E-1
2.920249506E1,2.633590698E-1,-7.326559424E-1,-5.564214587E-1
2.922173412E1,1.836412251E-1,-5.312232971E-1,-5.287798047E-1
2.924097329E1,4.757109284E-2,-5.848266482E-1,-4.878518879E-1
2.926021235E1,-1.312595755E-1,-8.137482405E-1,-4.124100804E-1
2.927945142E1,-2.740492225E-1,-1.004032612E0,-3.514763117E-1
2.929869058E1,-3.281107545E-1,-9.682970047E-1,-3.026071489E-1
2.931792965E1,-3.722457290E-1,-8.084031940E-1,-2.713003159E-1
2.933716871E1,-3.647626340E-1,-6.610320210E-1,-2.957349122E-1
2.935640788E1,-3.059668839E-1,-6.301833987E-1,-3.493382931E-1
2.937564694E1,-2.412152290E-1,-7.138718367E-1,-3.844630122E-1
2.939488600E1,-1.576794684E-1,-8.336013556E-1,-4.093557596E-1
2.941412506E1,-7.338013500E-2,-8.904117942E-1,-4.340957701E-1
2.943336423E1,-3.077231348E-2,-8.319214582E-1,-4.431060255E-1
2.945260329E1,-3.962985426E-2,-7.448732257E-1,-4.628064334E-1
2.947184235E1,-8.407026529E-2,-7.074577808E-1,-4.956403971E-1
2.949108152E1,-1.017853469E-1,-7.305179238E-1,-5.078576803E-1
2.951032058E1,-5.123628303E-2,-7.627410293E-1,-4.864774346E-1
2.952955965E1,8.628465235E-3,-7.931315303E-1,-4.925860763E-1
2.954879881E1,-2.008217946E-2,-6.851612329E-1,-5.019017458E-1
2.956803788E1,-1.169042438E-1,-4.854084253E-1,-5.104538798E-1
2.958727694E1,-1.553887278E-1,-3.519344628E-1,-5.153408051E-1
2.960651610E1,-4.421133921E-2,-3.039815724E-1,-5.237401724E-1
2.962575517E1,1.417969912E-1,-2.853502035E-1,-4.948768318E-1
2.964499423E1,3.261254430E-1,-3.160461783E-1,-4.835758209E-1
2.966423340E1,4.765508771E-1,-3.994292021E-1,-5.223657489E-1
2.968347246E1,6.280453801E-1,-4.420370162E-1,-5.561160445E-1
2.970271152E1,8.290198445E-1,-2.743546367E-1,-5.551997423E-1
2.972195069E1,1.025718331E0,-5.719221383E-2,-5.519927144E-1
2.974118975E1,9.249256253E-1,-2.479347438E-1,-6.375137568E-1
2.976042881E1,5.596284866E-1,-6.257545948E-1,-7.433460951E-1
2.977966798E1,1.155297980E-1,-5.949059129E-1,-7.460949421E-1
2.979890704E1,-6.207913160E-2,-1.231656075E-1,-6.459131241E-1
2.981814610E1,5.444332212E-2,1.416442692E-1,-5.967385173E-1
2.983738527E1,2.288452238E-1,-1.019380614E-1,-5.785652995E-1
2.985662433E1,3.244455457E-1,-5.425242782E-1,-4.947241247E-1
2.987586340E1,3.565159440E-1,-9.808197618E-1,-3.734674454E-1
2.989510256E1,3.232238293E-1,-1.366275430E0,-3.107011020E-1
2.991434163E1,2.062432170E-1,-1.533194184E0,-3.282634616E-1
2.993358069E1,6.162098423E-2,-1.332830548E0,-3.791179657E-1
2.995281975E1,-1.034652218E-1,-8.894954920E-1,-4.573086500E-1
2.997205892E1,-2.519053519E-1,-5.264890790E-1,-5.214494467E-1
2.999129798E1,-2.835176289E-1,-4.490619600E-1,-5.365683436E-1
3.001053704E1,-1.769217104E-1,-5.988765359E-1,-5.200750232E-1
3.002977621E1,-8.781181648E-3,-8.279508352E-1,-4.951822758E-1
3.004901527E1,1.509599537E-1,-9.450841546E-1,-4.754818678E-1
3.006825433E1,2.416733801E-1,-9.432515502E-1,-4.765508771E-1
3.008749350E1,2.461021543E-1,-8.951459527E-1,-4.983893037E-1
3.010673256E1,2.138790339E-1,-8.088613153E-1,-5.014436245E-1
3.012597163E1,1.931096315E-1,-7.150935531E-1,-4.843394160E-1
3.014521079E1,2.526689470E-1,-7.195223570E-1,-5.147299170E-1
3.016444985E1,3.325395286E-1,-8.594104052E-1,-5.993347168E-1
3.018368892E1,3.766745031E-1,-9.806670547E-1,-6.338485479E-1
3.020292808E1,3.746891916E-1,-1.049083948E0,-6.408734918E-1
3.022216715E1,3.627773225E-1,-1.058094144E0,-6.830231547E-1
3.024140621E1,4.289034307E-1,-1.066798925E0,-7.470112443E-1
3.026064538E1,5.269472599E-1,-1.118264318E0,-8.160389662E-1
3.027988444E1,6.343067288E-1,-1.206228852E0,-8.800270557E-1
3.029912350E1,4.907535017E-1,-1.518991590E0,-1.038088322E0
3.031836267E1,7.994692773E-2,-1.775249362E0,-1.140102744E0
3.033760173E1,-2.971093655E-1,-1.562821150E0,-1.104978085E0
3.035684079E1,-3.597230017E-1,-1.044044256E0,-1.026023746E0
3.037607996E1,-9.078978002E-2,-6.494256258E-1,-9.814306498E-1
3.039531902E1,1.437823027E-1,-8.006146550E-1,-9.456950426E-1
3.041455808E1,1.592066288E-1,-1.147433162E0,-8.009200692E-1
3.043379725E1,3.932442144E-2,-1.375743866E0,-6.088030934E-1
3.045303631E1,-7.780890167E-2,-1.460654020E0,-5.133554935E-1
3.047227538E1,-1.178205460E-1,-1.385212302E0,-5.106065869E-1
3.049151454E1,-8.819360286E-2,-1.226081967E0,-5.493965149E-1
3.051075360E1,-5.490147322E-2,-1.101007462E0,-5.858956575E-1
3.052999267E1,-3.825540841E-2,-1.059315920E0,-6.069704890E-1
3.054923183E1,-2.588539571E-2,-1.079779863E0,-6.440805793E-1
3.056847090E1,2.977965865E-3,-1.068020701E0,-6.814960241E-1
3.058770996E1,4.833467677E-2,-9.857066870E-1,-6.909644008E-1
3.060694902E1,1.249982044E-1,-8.794162273E-1,-6.950877905E-1
3.062618819E1,2.082285285E-1,-7.888554931E-1,-6.938660145E-1
3.064542725E1,2.137263119E-1,-7.381537557E-1,-7.028762698E-1
3.066466631E1,1.362992078E-1,-6.949350238E-1,-7.147881389E-1
3.068390548E1,1.214093715E-2,-5.820778012E-1,-7.328086495E-1
3.070314454E1,-7.383827865E-2,-3.456731141E-1,-7.126501203E-1
3.072238360E1,-6.223184988E-2,-1.753945500E-1,-6.369028687E-1
3.074162277E1,7.353284955E-2,-2.433532625E-1,-5.774962902E-1
3.076086183E1,2.532798052E-1,-4.075231552E-1,-5.319868922E-1
3.078010090E1,3.177260458E-1,-5.791761875E-1,-5.187005401E-1
3.079934006E1,3.267363012E-1,-6.159807444E-1,-5.434405804E-1
3.081857913E1,4.021781087E-1,-4.379136860E-1,-5.738310814E-1
3.083781819E1,5.964331031E-1,-1.767689884E-1,-5.600866675E-1
3.085705735E1,6.596575975E-1,-3.410916328E-1,-5.778017044E-1
3.087629642E1,4.918225110E-1,-9.682970047E-1,-6.419425011E-1
3.089553548E1,8.391755074E-2,-1.575191140E0,-7.196750641E-1
3.091477465E1,-2.502254844E-1,-1.474398494E0,-6.992111206E-1
3.093401371E1,-1.998291463E-1,-8.085559011E-1,-7.105121017E-1
3.095325277E1,7.643445581E-2,-4.113410711E-1,-8.015309572E-1
3.097249183E1,2.680932879E-1,-6.010146141E-1,-8.340594769E-1
3.099173100E1,3.177260458E-1,-1.075045705E0,-8.035162687E-1
3.101097006E1,2.905425727E-1,-1.579620004E0,-7.509818673E-1
3.103020913E1,2.974147797E-1,-1.835877776E0,-7.464004159E-1
3.104944829E1,3.268890083E-1,-1.726227522E0,-7.876337767E-1
3.106868735E1,3.009272516E-1,-1.462944746E0,-8.473458290E-1
3.108792642E1,2.030361742E-1,-1.229899883E0,-8.852193952E-1
3.110716558E1,9.521854669E-2,-1.102381825E0,-8.846085668E-1
3.112640465E1,5.199986324E-2,-1.137659311E0,-8.476512432E-1
3.114564371E1,9.033162892E-2,-1.287932038E0,-8.062651753E-1
3.116488288E1,1.810450554E-1,-1.374369383E0,-7.641154528E-1
3.118412194E1,2.187659442E-1,-1.370551467E0,-7.480802536E-1
3.120336100E1,1.802814752E-1,-1.299233079E0,-7.419716120E-1
3.122260006E1,9.460768104E-2,-1.176449180E0,-7.202859521E-1
3.124183923E1,6.360629201E-2,-1.045724154E0,-6.952404976E-1
3.126107829E1,8.345939964E-2,-1.047862172E0,-6.931024790E-1
3.128031712E1,1.731038094E-1,-1.112461090E0,-7.001274228E-1
3.129955629E1,3.122282624E-1,-1.169118881E0,-6.753873825E-1
3.131879561E1,4.365392327E-1,-1.197829485E0,-6.511055231E-1
3.133803468E1,5.301542878E-1,-1.208977699E0,-6.475930214E-1
3.135727374E1,5.891027451E-1,-1.223791242E0,-6.394990683E-1
3.137651290E1,6.315578222E-1,-1.242269874E0,-6.411789656E-1
3.139575197E1,6.288089156E-1,-1.245476961E0,-6.639336348E-1
3.141499103E1,6.193405390E-1,-1.189735532E0,-6.918807030E-1
3.143423020E1,6.785944104E-1,-1.100854635E0,-6.796634197E-1
3.145346926E1,6.810378432E-1,-1.236924767E0,-6.960040331E-1
3.147270832E1,4.600575268E-1,-1.534415960E0,-7.749583125E-1
3.149194738E1,1.468366235E-1,-1.446756840E0,-7.777072191E-1
3.151118655E1,-1.659261435E-1,-1.187292099E0,-7.340303659E-1
3.153042561E1,-2.140317410E-1,-8.691841960E-1,-6.898953915E-1
3.154966468E1,-3.901898861E-2,-8.029053807E-1,-6.396517754E-1
3.156890384E1,1.037706509E-1,-1.112155676E0,-5.982657075E-1
3.158814290E1,1.124754772E-1,-1.361999393E0,-5.249619484E-1
3.160738197E1,3.932442144E-2,-1.319544315E0,-4.582249522E-1
3.162662926E1,-5.765036494E-2,-1.094287872E0,-4.421897531E-1
3.164586020E1,-1.873064190E-1,-9.295071363E-1,-4.774671793E-1
3.166509926E1,-2.242637277E-1,-8.403208852E-1,-4.954876900E-1
3.168433832E1,-1.721875072E-1,-8.852193952E-1,-5.458840132E-1
3.170357749E1,-1.176678315E-1,-9.377537966E-1,-5.933787823E-1
3.172281655E1,-1.068249792E-1,-8.784999251E-1,-6.077340841E-1
3.174205561E1,-1.181259751E-1,-7.784708142E-1,-6.153699160E-1
3.176129468E1,-1.222493127E-1,-6.708058715E-1,-6.136900187E-1
3.178053384E1,-1.095738709E-1,-6.234638691E-1,-5.932260752E-1
3.179977290E1,-9.888373315E-2,-6.466767192E-1,-5.565741658E-1
3.181901197E1,-8.926261961E-2,-6.352230310E-1,-5.316814184E-1
3.183825103E1,-1.390480995E-1,-5.610029697E-1,-5.359575152E-1
3.185749020E1,-2.181550860E-1,-3.340666890E-1,-5.167152286E-1
3.187672926E1,-2.781725526E-1,-8.071050793E-2,-4.727329910E-1
3.189596832E1,-2.818377316E-1,1.824958436E-2,-4.096612036E-1
3.191520738E1,-2.126573026E-1,-9.506583214E-2,-3.374264240E-1
3.193444655E1,-9.582941234E-2,-3.056614697E-1,-2.598465979E-1
3.195368561E1,3.184132650E-2,-4.591412544E-1,-1.955530941E-1
3.197292468E1,1.688277572E-1,-4.524217248E-1,-1.501963735E-1
3.199216374E1,2.942077518E-1,-3.021489978E-1,-1.234710440E-1
3.201140290E1,4.243219495E-1,-1.315650046E-1,-9.506583214E-2
3.203064197E1,4.857138693E-1,-2.428951114E-1,-1.095738709E-1
3.204988103E1,3.763690591E-1,-6.672934294E-1,-1.944840699E-1
3.206912009E1,6.910407543E-2,-9.602030516E-1,-2.706894577E-1
3.208835926E1,-2.473238707E-1,-8.383355737E-1,-2.670242786E-1
3.210759832E1,-2.966512144E-1,-4.128682315E-1,-2.671769857E-1
3.212683738E1,-2.283107117E-2,-2.542724647E-2,-3.041343093E-1
3.214607645E1,3.554469347E-1,7.559451740E-3,-3.389535844E-1
3.216531561E1,5.385536551E-1,-3.006218374E-1,-3.369682729E-1
3.218455468E1,4.654026031E-1,-6.191878319E-1,-2.997055352E-1
3.220379374E1,2.242637277E-1,-7.870228887E-1,-2.682459950E-1
3.222303280E1,-9.544761851E-3,-7.312815189E-1,-2.493091822E-1
3.224227197E1,-1.563050300E-1,-5.964331031E-1,-2.348011434E-1
3.226151103E1,-2.088394016E-1,-5.249619484E-1,-2.398407906E-1
3.228075009E1,-2.044106275E-1,-5.393172503E-1,-2.332739830E-1
3.229998915E1,-1.411861181E-1,-5.698604584E-1,-2.241110206E-1
3.231922822E1,-5.749764666E-2,-5.577958822E-1,-2.344957143E-1
3.233846738E1,1.450803829E-3,-4.938078225E-1,-2.705367506E-1
3.235770645E1,1.748600416E-2,-4.008036554E-1,-2.763399482E-1
3.237694551E1,8.017600514E-3,-3.568213880E-1,-2.409097999E-1
3.239618457E1,-4.199695308E-3,-4.229474962E-1,-2.230419964E-1
3.241542374E1,4.963276442E-3,-5.625301003E-1,-2.416733801E-1
3.243466280E1,8.475748822E-3,-6.530908346E-1,-2.749654949E-1
3.245390186E1,-3.474293277E-2,-6.240747571E-1,-3.047451675E-1
3.247314092E1,-9.216422588E-2,-5.434405804E-1,-3.146717250E-1
3.249237999E1,-1.088102907E-1,-5.103011727E-1,-3.395644724E-1
3.251161915E1,-7.643445581E-2,-5.423715711E-1,-3.849211633E-1
3.253085822E1,-6.834049523E-2,-6.465240121E-1,-4.385245442E-1
3.255009728E1,-5.810851231E-2,-7.494547367E-1,-4.921279252E-1
3.256933634E1,-5.268708803E-3,-7.896190882E-1,-5.196168423E-1
3.258857540E1,4.360047355E-2,-7.671698332E-1,-5.214494467E-1
3.260781457E1,7.383827865E-2,-6.790525317E-1,-5.237401724E-1
3.262705363E1,1.466839015E-1,-6.037634611E-1,-5.101484656E-1
3.264629270E1,1.727983803E-1,-7.015018463E-1,-5.313760042E-1
3.266553176E1,7.536543906E-2,-8.797216415E-1,-5.813142061E-1
3.268477082E1,-8.422297984E-2,-9.795980453E-1,-6.193405390E-1
3.270400999E1,-2.149480432E-1,-9.069051147E-1,-6.252964735E-1
3.272324905E1,-3.168097436E-1,-7.741947770E-1,-5.997928381E-1
3.274248811E1,-3.107011020E-1,-7.212022543E-1,-5.655844212E-1
3.276172718E1,-9.521854669E-2,-7.581595778E-1,-5.590176582E-1
3.278096624E1,2.053269297E-1,-8.705586791E-1,-5.600866675E-1
3.280020540E1,3.896553814E-1,-1.059315920E0,-5.480220914E-1
3.281944447E1,4.359283745E-1,-1.214017391E0,-5.159516931E-1
3.283868353E1,4.296670258E-1,-1.268537045E0,-5.054142475E-1
3.285792259E1,4.073704481E-1,-1.231121659E0,-5.460367799E-1
3.287716165E1,3.026071489E-1,-1.187444806E0,-6.059014797E-1
3.289640072E1,1.448513120E-1,-1.111544847E0,-6.596575975E-1
3.291563988E1,3.168861195E-2,-9.887610078E-1,-6.984475255E-1
3.293487895E1,-2.527453005E-2,-9.285908341E-1,-7.511346340E-1
3.295411801E1,-9.949459881E-2,-9.713513851E-1,-8.055015802E-1
3.297335707E1,-2.140317410E-1,-9.933425188E-1,-7.900772095E-1
3.299259613E1,-2.697731555E-1,-9.403499961E-1,-7.590758204E-1
3.301183530E1,-2.202931046E-1,-8.951459527E-1,-7.682388425E-1
3.303107436E1,-1.619555205E-1,-9.385173917E-1,-7.867174745E-1
3.305031342E1,-1.563050300E-1,-1.027398229E0,-7.938951254E-1
3.306955249E1,-1.210275814E-1,-9.580650330E-1,-7.935897112E-1
3.308879155E1,-7.063124329E-2,-8.284090161E-1,-8.238275051E-1
3.310803061E1,-9.544761851E-3,-6.961567998E-1,-8.720858097E-1
3.312726978E1,-2.664897591E-2,-5.506182313E-1,-8.868992925E-1
3.314650884E1,-8.972076327E-2,-4.428006113E-1,-8.711695075E-1
3.316574790E1,-7.032580674E-2,-4.105774760E-1,-8.372665644E-1
3.318498697E1,6.223184988E-2,-4.999164641E-1,-8.386409879E-1
3.320422603E1,1.917351782E-1,-6.663771272E-1,-8.441387415E-1
3.322346509E1,2.325104028E-1,-7.818305492E-1,-8.166498542E-1
3.324270426E1,1.979965419E-1,-6.839394569E-1,-8.007673621E-1
3.326194332E1,2.235001475E-1,-2.667188346E-1,-8.004619479E-1
3.328118238E1,2.786307037E-1,2.832885459E-2,-7.828995585E-1
3.330042145E1,2.595411837E-1,-1.010217592E-1,-7.381537557E-1
3.331966051E1,1.669951528E-1,-4.777726233E-1,-6.792052984E-1
3.333889957E1,6.482802331E-2,-8.087086082E-1,-5.846739411E-1
3.335813863E1,5.337430909E-2,-8.148172498E-1,-4.715112448E-1
3.337737780E1,1.014799103E-1,-7.343358397E-1,-4.464657903E-1
3.339661686E1,1.231656075E-1,-7.612138987E-1,-4.725802541E-1
3.341585592E1,1.040760875E-1,-8.080977201E-1,-4.625009894E-1
3.343509499E1,8.330668509E-2,-9.197332859E-1,-4.458549321E-1
3.345433405E1,2.176205814E-2,-1.125136614E0,-4.588358104E-1
3.347357311E1,-2.955058403E-2,-1.168355227E0,-5.046506524E-1
3.349281228E1,-8.254310489E-2,-1.009377718E0,-5.658898354E-1
3.351205134E1,-1.248454899E-1,-7.280744314E-1,-6.063596606E-1
3.353129040E1,-1.272889525E-1,-5.203804374E-1,-6.515636444E-1
3.355052947E1,-1.069776937E-1,-5.147299170E-1,-6.705004573E-1
3.356976853E1,-2.817613818E-2,-5.709294677E-1,-6.281980872E-1
3.358900759E1,5.077813566E-2,-6.807324290E-1,-5.892554522E-1
3.360824665E1,9.613484144E-2,-7.508291602E-1,-5.794816017E-1
3.362748572E1,3.291033953E-2,-7.641154528E-1,-5.718457699E-1
3.364672488E1,-1.162933856E-1,-7.387645841E-1,-5.438987017E-1
3.366596395E1,-2.783252597E-1,-7.822887301E-1,-5.139663815E-1
3.368520301E1,-3.136027157E-1,-8.710168004E-1,-5.084685683E-1
3.370444207E1,-2.025780380E-1,-9.505819678E-1,-5.292379856E-1
3.372368113E1,-3.794997558E-2,-1.018998861E0,-5.735256672E-1
3.374292020E1,1.138499230E-1,-1.052290916E0,-5.999455452E-1
3.376215926E1,2.149480432E-1,-1.100091100E0,-6.289616227E-1
3.378139832E1,2.549596727E-1,-1.185306787E0,-6.989056468E-1
3.380063749E1,2.636645138E-1,-1.162857413E0,-7.847321630E-1
3.381987655E1,2.969566286E-1,-1.074892879E0,-8.076395988E-1
3.383911561E1,2.948186100E-1,-1.196302295E0,-8.591049314E-1
3.385835468E1,6.406444311E-2,-1.472718596E0,-9.650899768E-1
3.387759374E1,-2.903898358E-1,-1.466151834E0,-1.033964992E0
3.389683280E1,-6.036107540E-1,-1.262428403E0,-9.980766773E-1
3.391607186E1,-6.895899773E-1,-1.051832795E0,-9.502764940E-1
3.393531092E1,-4.744128585E-1,-9.151517749E-1,-9.284381270E-1
3.395455009E1,-1.353829056E-1,-9.982293844E-1,-8.919389248E-1
3.397378915E1,1.248454899E-1,-1.298622131E0,-8.668934703E-1
3.399302822E1,2.037997693E-1,-1.556254387E0,-8.106939197E-1
3.401226728E1,1.711184978E-1,-1.643760800E0,-8.189405799E-1
3.403150634E1,7.017309219E-2,-1.600847483E0,-9.244675040E-1
3.405074540E1,-6.055197120E-2,-1.442633510E0,-1.070311427E0
3.406998447E1,-1.976911128E-1,-1.258152366E0,-1.186833858E0
3.408922353E1,-2.711476088E-1,-1.179961681E0,-1.284724951E0
3.410846259E1,-2.523635030E-1,-1.205312610E0,-1.333136082E0
3.412770165E1,-1.918879002E-1,-1.238146544E0,-1.329623580E0
3.414694082E1,-1.039233729E-1,-1.226998210E0,-1.307479739E0
3.416617988E1,-7.712167688E-3,-1.141019106E0,-1.284266829E0
3.418541895E1,4.741837829E-2,-1.041448116E0,-1.262733817E0
3.420465801E1,3.611737862E-2,-9.111811519E-1,-1.221195102E0
3.422389707E1,-3.199404106E-2,-8.459713459E-1,-1.168660641E0
3.424313613E1,-8.040507883E-2,-7.288380265E-1,-1.142546177E0
3.426237520E1,-1.283579618E-1,-5.306124091E-1,-1.078558087E0
3.428161426E1,-1.187368408E-1,-3.305542171E-1,-9.936479330E-1
3.430085332E1,-4.512763396E-2,-2.138790339E-1,-9.101121426E-1
3.432009238E1,9.628756344E-2,-2.111301422E-1,-8.025999665E-1
3.433933145E1,2.570977211E-1,-3.226129711E-1,-6.998219490E-1
3.435857061E1,4.160752594E-1,-4.747183025E-1,-6.344594359E-1
3.437780968E1,6.132318974E-1,-5.032762289E-1,-6.039161682E-1
3.439704874E1,8.626174331E-1,-2.407570779E-1,-5.794816017E-1
3.441628780E1,9.208022952E-1,-4.207331315E-2,-5.576431751E-1
3.443552686E1,6.278926134E-1,-4.789943397E-1,-6.089558005E-1
3.445476593E1,9.857830405E-2,-1.210504889E0,-7.329613566E-1
3.447400499E1,-2.459494323E-1,-1.216002703E0,-7.352521420E-1
3.449324405E1,-1.828776449E-1,-7.193696499E-1,-7.378482819E-1
3.451248311E1,1.059086844E-1,-5.135082006E-1,-8.528435826E-1
3.453172218E1,4.136318266E-1,-7.508291602E-1,-9.766964316E-1
3.455096124E1,5.912407637E-1,-1.201189280E0,-9.692133069E-1
3.457020030E1,7.008909583E-1,-1.635208607E0,-9.640209675E-1
3.458943947E1,7.816778421E-1,-1.764253855E0,-1.051527381E0
3.460867853E1,7.949641347E-1,-1.534721375E0,-1.201800108E0
3.462791759E1,6.691260338E-1,-1.232954144E0,-1.308090568E0
3.464715665E1,4.547124803E-1,-1.074740171E0,-1.335426807E0
3.466639572E1,2.780198455E-1,-1.075045705E0,-1.311450362E0
3.468563478E1,1.456148922E-1,-1.267773509E0,-1.270827770E0
3.470487384E1,2.344193682E-2,-1.529834509E0,-1.234786749E0
3.472411290E1,-1.062141135E-1,-1.672624111E0,-1.168507934E0
3.474335197E1,-2.033416182E-1,-1.706527114E0,-1.091997147E0
3.476259103E1,-2.253327519E-1,-1.691102743E0,-1.069547892E0
3.478183009E1,-1.506545246E-1,-1.569082499E0,-1.051680088E0
3.480106915E1,-3.856083751E-2,-1.431943417E0,-1.003727198E0
3.482030822E1,9.414953738E-2,-1.384143233E0,-9.695187807E-1
3.483954728E1,2.302196622E-1,-1.454087257E0,-9.828050733E-1
3.485878634E1,3.389535844E-1,-1.481728911E0,-9.944115281E-1
3.487802540E1,4.218784869E-1,-1.399414897E0,-9.846376777E-1
3.489726447E1,4.976257086E-1,-1.321529627E0,-9.941060543E-1
3.491650363E1,5.568795800E-1,-1.290528178E0,-1.015028238E0
3.493574270E1,5.770381689E-1,-1.296942234E0,-1.011515737E0
3.495498176E1,5.645154119E-1,-1.350545645E0,-1.004948974E0
3.497422082E1,6.387354732E-1,-1.345964193E0,-1.012279272E0
3.499345988E1,8.429170251E-1,-1.303203702E0,-1.004948974E0
3.501269895E1,9.331722856E-1,-1.457905173E0,-1.013653755E0
3.503193801E1,6.591994762E-1,-1.820453405E0,-1.066340804E0
3.505117707E1,2.025780380E-1,-1.908265233E0,-1.104061723E0
3.507041613E1,-1.506545246E-1,-1.588782907E0,-1.065424562E0
3.508965520E1,-2.786307037E-1,-1.267162681E0,-1.033506870E0
3.510889426E1,-2.381609082E-1,-1.139797330E0,-1.011821151E0
3.512813332E1,-1.900553107E-1,-1.179045439E0,-9.586759210E-1
3.514737238E1,-1.883754283E-1,-1.307937860E0,-8.540652990E-1
3.516661145E1,-1.457676142E-1,-1.391015410E0,-7.647263408E-1
3.518585051E1,-5.016727000E-2,-1.365970016E0,-7.369319797E-1
3.520508957E1,6.574432552E-2,-1.263039231E0,-7.486911416E-1
3.522432863E1,8.941533417E-2,-1.201647401E0,-7.763327956E-1
3.524356770E1,1.870773360E-2,-1.210046768E0,-8.035162687E-1
3.526280676E1,-9.537126124E-2,-1.266399026E0,-8.607848287E-1
3.528204582E1,-1.886808574E-1,-1.202563643E0,-9.090431333E-1
3.530128488E1,-2.517526448E-1,-1.013348341E0,-9.423353076E-1
3.532052395E1,-2.763399482E-1,-7.279217243E-1,-9.548580050E-1
3.533976301E1,-2.796997130E-1,-4.895317554E-1,-9.453896284E-1
3.535900207E1,-2.700785995E-1,-3.574322462E-1,-9.072105289E-1
3.537824113E1,-2.752709389E-1,-3.013854027E-1,-8.365029693E-1
3.539748020E1,-2.847393453E-1,-2.627482116E-1,-7.306706309E-1
3.541671926E1,-2.645808160E-1,-2.673296928E-1,-6.062069535E-1
3.543595832E1,-1.990655661E-1,-2.801578641E-1,-4.663189054E-1
3.545519738E1,-5.627591908E-2,-2.615264952E-1,-3.442986608E-1
3.547443645E1,1.219438836E-1,-2.341902852E-1,-2.716057599E-1
3.549367551E1,2.322049737E-1,-2.384663373E-1,-2.233474404E-1
3.551291457E1,2.711476088E-1,-2.453385741E-1,-2.021198869E-1
3.553215363E1,3.045924604E-1,-2.367864549E-1,-2.199876755E-1
3.555139270E1,3.994292021E-1,-1.903607398E-1,-2.438113987E-1
3.557063176E1,6.022363305E-1,-2.573267929E-2,-2.441168427E-1
3.558987082E1,7.935897112E-1,1.726456583E-1,-2.380081862E-1
3.560910988E1,7.172316313E-1,5.474875495E-2,-2.818377316E-1
3.562834895E1,3.552942276E-1,-3.194059134E-1,-3.221548200E-1
3.564758801E1,-7.704532146E-2,-4.479929507E-1,-3.119228184E-1
3.566682707E1,-1.727983803E-1,-1.306487024E-1,-2.344957143E-1
3.568606613E1,2.359465137E-2,2.734383345E-1,-2.030361742E-1
3.570530520E1,2.170860767E-1,3.143662810E-1,-1.995237023E-1
3.572454426E1,2.537379563E-1,1.196531355E-1,-1.214857325E-1
3.574378332E1,2.102138400E-1,-1.042288020E-1,-1.305723470E-2
3.576302238E1,2.172387838E-1,-3.136027157E-1,5.933023989E-2
3.578226145E1,2.383136153E-1,-4.458549321E-1,7.536543906E-2
3.580150051E1,2.606101930E-1,-4.166861475E-1,6.207913160E-2
3.582073957E1,2.603047490E-1,-3.184896111E-1,2.222020552E-2
3.583997863E1,2.270126194E-1,-2.317468226E-1,-3.588830587E-3
3.585921770E1,1.630245447E-1,-1.966221035E-1,1.382081583E-2
3.587845676E1,1.520289779E-1,-2.169333547E-1,3.092502989E-2
3.589769582E1,2.373973280E-1,-2.653443813E-1,4.505127668E-3
3.591693488E1,3.523926139E-1,-2.757290900E-1,-3.260490671E-2
3.593617395E1,4.061487317E-1,-2.235001475E-1,-4.482220486E-2
3.595541301E1,3.809505403E-1,-2.076176703E-1,-5.291616172E-2
3.597465207E1,3.157407343E-1,-2.322049737E-1,-6.803506613E-2
3.599389113E1,2.603047490E-1,-2.694677114E-1,-7.047852129E-2
3.601313020E1,2.540434003E-1,-3.134499788E-1,-8.956804872E-2
3.603236926E1,3.195586503E-1,-2.781725526E-1,-1.396589577E-1
3.605160832E1,3.351356983E-1,-1.868482679E-1,-1.778380126E-1
3.607084738E1,2.804632783E-1,-9.094249457E-2,-1.372154951E-1
3.609008645E1,2.137263119E-1,-9.873101860E-2,-7.979421318E-2
3.610932551E1,2.305250913E-1,-2.183077931E-1,-6.788235158E-2
3.612856457E1,3.540725112E-1,-2.322049737E-1,-5.031998456E-2
3.614780363E1,5.541307330E-1,-1.399643868E-1,-5.421424750E-3
3.616704270E1,6.827177405E-1,-9.353867173E-2,3.130682046E-3
3.618628176E1,4.693732262E-1,-2.447277009E-1,-3.184132650E-2
3.620552082E1,1.427896414E-2,-2.946659029E-1,-5.841394514E-2
3.622475988E1,-4.116465151E-1,-4.283689335E-2,-1.886045001E-2
3.624399895E1,-4.954876900E-1,3.378845751E-1,7.460185885E-2
3.626323790E1,-2.874882221E-1,5.064832568E-1,1.405752599E-1
3.628247697E1,-7.796161622E-2,2.812268734E-1,1.827249229E-1
3.630171603E1,-3.413207084E-2,-6.345357746E-2,2.645808160E-1
3.632095509E1,-1.656207144E-1,-2.966512144E-1,3.684278131E-1
3.634019415E1,-3.058141768E-1,-2.612210512E-1,4.012618065E-1
3.635943322E1,-3.815613985E-1,-1.290451828E-2,3.502545953E-1
3.637867228E1,-4.444804788E-1,2.372446060E-1,2.491564751E-1
3.639791134E1,-5.278635025E-1,3.644571900E-1,1.225547493E-1
3.641715040E1,-6.135373116E-1,4.513527155E-1,4.543306679E-2
3.643638947E1,-6.262127757E-1,5.915461779E-1,2.496909723E-2
3.645562853E1,-5.408443809E-1,7.267000079E-1,-3.741546767E-3
3.647486759E1,-4.542543292E-1,7.488438487E-1,-1.351538301E-2
3.649410665E1,-3.898080885E-1,7.331140637E-1,3.932442144E-2
3.651334572E1,-3.168097436E-1,6.746237874E-1,1.271362305E-1
3.653258478E1,-2.022725940E-1,6.147590280E-1,2.004400045E-1
3.655182374E1,-1.104901657E-1,5.975021124E-1,2.564868629E-1
3.657106280E1,-1.124754772E-1,6.880627871E-1,3.274998665E-1
3.659030186E1,-1.245400533E-1,9.443206191E-1,4.260018170E-1
3.660954093E1,-5.948295817E-2,1.175838351E0,5.284743905E-1
3.662877999E1,5.016727000E-2,1.171867728E0,5.991820097E-1
3.664801905E1,6.910407543E-2,9.934952259E-1,6.234638691E-1
3.666725811E1,7.780890167E-2,9.498183727E-1,6.494256258E-1
3.668649718E1,5.245801434E-2,8.734602928E-1,7.906880975E-1
3.670573624E1,1.366809942E-2,5.237401724E-1,1.021747708E0
3.672497530E1,5.826122686E-2,-3.764454275E-2,1.143767953E0
3.674421436E1,2.172387838E-1,-4.108829200E-1,1.099785686E0
3.676345342E1,2.557232678E-1,-3.908770978E-1,9.869284034E-1
3.678269249E1,-6.085740402E-2,-6.024653837E-2,9.973130822E-1
3.680193145E1,-5.915461779E-1,4.617374241E-1,1.194011569E0
3.682117051E1,-8.487202525E-1,1.005712509E0,1.222874880E0
3.684040957E1,-5.310705900E-1,1.502498269E0,8.975894451E-1
3.685964863E1,2.117410004E-1,2.149251461E0,8.009200692E-1
3.687888770E1,8.103885055E-1,2.371453524E0,1.129107237E0
3.689812676E1,6.236165762E-1,1.319238901E0,1.367344499E0
3.691736582E1,2.160934173E-2,2.575558722E-1,1.222111344E0
3.693660488E1,-3.030653000E-1,6.880627871E-1,1.142851591E0
3.695584395E1,-4.305832982E-1,1.665599227E0,1.155527115E0
3.697508301E1,-5.729147792E-1,1.948276877E0,1.078710794E0
3.699432207E1,-6.854666471E-1,1.715690136E0,9.124029279E-1
3.701356103E1,-6.329322457E-1,1.567555428E0,7.951168418E-1
3.703280009E1,-6.191878319E-1,1.719660759E0,7.693078518E-1
3.705203915E1,-6.749292016E-1,2.022802353E0,8.522327542E-1
3.707127822E1,-7.526617646E-1,2.152458429E0,1.023274899E0
3.709051728E1,-6.410261989E-1,1.932852507E0,1.186681151E0
3.710975634E1,-3.583485484E-1,1.360319495E0,1.258305073E0
3.712899540E1,-8.071050793E-2,6.564505696E-1,1.232037902E0
3.714823447E1,2.056323588E-1,2.092975378E-1,1.118111610E0
3.716747353E1,4.194350243E-1,1.312595755E-1,1.002963662E0
3.718671249E1,4.429533184E-1,2.399934977E-1,9.154572487E-1
3.720595155E1,3.823249936E-1,2.839757502E-1,7.748056054E-1
3.722519061E1,3.989710510E-1,2.187659442E-1,6.100248694E-1
3.724442968E1,4.967094362E-1,1.946367919E-1,4.263072610E-1
3.726366874E1,5.652790070E-1,2.335794270E-1,2.152534723E-1
3.728290780E1,4.515054226E-1,2.868773639E-1,7.735075057E-2
3.730214686E1,2.816850245E-1,3.717875779E-1,6.528617442E-2
3.732138592E1,1.671478748E-1,3.120755553E-1,4.810560029E-3
3.734062499E1,-1.596647799E-1,-1.450803829E-3,-1.975383908E-1
3.735986395E1,-5.144245028E-1,2.512181364E-2,-2.448804229E-1
3.737910301E1,-6.555342674E-1,3.681223989E-1,-1.230128929E-1
3.739834207E1,-4.971675575E-1,5.576431751E-1,-6.818778068E-2
3.741758113E1,-2.076176703E-1,4.001927972E-1,-1.162933856E-1
3.743682020E1,-2.061668551E-3,1.790597439E-1,-1.333975941E-1
3.745605926E1,-2.924515121E-2,1.169042438E-1,-6.375901401E-2
3.747529832E1,-1.651625633E-1,2.071595192E-1,5.749764666E-2
3.749453728E1,-2.713003159E-1,2.483928949E-1,1.692859083E-1
3.751377634E1,-1.883754283E-1,2.140317410E-1,2.163224965E-1
3.753301540E1,2.466366626E-2,1.834885031E-1,1.668424457E-1
3.755225447E1,1.902080178E-1,1.720348001E-1,1.095738709E-1
3.757149353E1,2.129627317E-1,1.889862865E-1,1.066722646E-1
3.759073259E1,1.811977625E-1,1.983019859E-1,1.161406636E-1
3.760997165E1,1.479056329E-1,1.764635593E-1,8.956804872E-2
3.762921061E1,1.103374511E-1,1.527925581E-1,4.283689335E-2
3.764844968E1,7.200568914E-2,2.117410004E-1,-6.643154658E-3
3.766768874E1,2.741255611E-2,3.012326956E-1,-2.985601686E-2
3.768692780E1,-1.168278884E-2,3.132972717E-1,-3.871355578E-2
3.770616686E1,-1.458439697E-2,2.725220621E-1,-4.268417507E-2
3.772540593E1,4.970912263E-2,2.271653414E-1,-4.436405376E-2
3.774464499E1,1.364519149E-1,1.877645552E-1,-3.428478539E-2
3.776388395E1,1.831830740E-1,1.364519149E-1,-2.130390890E-2
3.778312301E1,1.885281354E-1,1.379790753E-1,-5.574141163E-3
3.780236207E1,1.271362305E-1,1.673005968E-1,-1.641699113E-2
3.782160113E1,3.794997558E-2,1.847102344E-1,-6.284271181E-2
3.784084020E1,1.977674663E-2,2.574031353E-1,-6.849320978E-2
3.786007926E1,7.857248187E-2,3.655261993E-1,-5.948295817E-2
3.787931822E1,3.342193961E-1,5.663480163E-1,-4.405862093E-2
3.789855728E1,5.474112034E-1,5.419133902E-1,-5.306887627E-2
3.791779634E1,3.258199990E-1,-1.436295807E-1,-1.249982044E-1
3.793703540E1,-1.100320220E-1,-5.600866675E-1,-1.448513120E-1
3.795627447E1,-3.430769444E-1,-2.477820218E-1,-4.421133921E-2
3.797551353E1,-2.076176703E-1,3.009272516E-1,5.879573524E-3
3.799475249E1,7.460185885E-2,5.133554935E-1,-6.879864633E-2
3.801399155E1,1.827249229E-1,3.163515925E-1,-1.208748668E-1
3.803323061E1,1.132390574E-1,-1.450803829E-3,-6.070468575E-2
3.805246968E1,4.405862093E-2,-2.476293147E-1,7.406735327E-3
3.807170874E1,2.252563834E-2,-4.040106833E-1,2.466366626E-2
3.809094780E1,-5.261072889E-2,-5.232820511E-1,3.153589368E-2
3.811018686E1,-1.500436664E-1,-4.991528690E-1,7.872519642E-2
3.812942582E1,-1.622609496E-1,-3.517817557E-1,1.204167232E-1
3.814866488E1,-8.941533417E-2,-3.120755553E-1,7.872519642E-2
3.816790395E1,4.298960790E-2,-3.398698866E-1,4.268417507E-2
3.818714301E1,1.292742640E-1,-4.304305911E-1,3.061959706E-2
3.820638207E1,1.724929363E-1,-4.960985482E-1,3.886627033E-2
3.822562113E1,2.238055766E-1,-4.881573021E-1,5.879573524E-3
3.824486009E1,2.180023640E-1,-4.777726233E-1,-9.873101860E-2
3.826409915E1,1.527925581E-1,-3.782016635E-1,-1.972329617E-1
3.828333822E1,5.673406646E-2,-1.741728187E-1,-2.546542585E-1
3.830257728E1,1.450803829E-3,-2.451094985E-2,-2.877936661E-1
3.832181634E1,7.032580674E-2,-4.436405376E-2,-3.467421234E-1
